Cycle,Area(mm^2),PeakDynamic(W),SubthresholdLeakage(W),GateLeakage(W),RunTimeDynamic(W)
100,0.0324,0.013523,0.002678,0.000431,0.001175
200,0.0324,0.013523,0.002678,0.000431,0.000000
300,0.0324,0.013523,0.002678,0.000431,0.000000
400,0.0324,0.013523,0.002678,0.000431,0.000000
500,0.0324,0.013523,0.002678,0.000431,0.000000
600,0.0324,0.013523,0.002678,0.000431,0.000000
700,0.0324,0.013523,0.002678,0.000431,0.000000
800,0.0324,0.013523,0.002678,0.000431,0.000000
900,0.0324,0.013523,0.002678,0.000431,0.000000
1000,0.0324,0.013523,0.002678,0.000431,0.000000
1100,0.0324,0.013523,0.002678,0.000431,0.000000
1200,0.0324,0.013523,0.002678,0.000431,0.000000
1300,0.0324,0.013523,0.002678,0.000431,0.000000
1400,0.0324,0.013523,0.002678,0.000431,0.000000
1500,0.0324,0.013523,0.002678,0.000431,0.000000
1600,0.0324,0.013523,0.002678,0.000431,0.000000
1700,0.0324,0.013523,0.002678,0.000431,0.000000
1800,0.0324,0.013523,0.002678,0.000431,0.000000
1900,0.0324,0.013523,0.002678,0.000431,0.000000
2000,0.0324,0.013523,0.002678,0.000431,0.000000
2100,0.0324,0.013523,0.002678,0.000431,0.000000
2200,0.0324,0.013523,0.002678,0.000431,0.000000
2300,0.0324,0.013523,0.002678,0.000431,0.000000
2400,0.0324,0.013523,0.002678,0.000431,0.000000
2500,0.0324,0.013523,0.002678,0.000431,0.000000
2600,0.0324,0.013523,0.002678,0.000431,0.000000
2700,0.0324,0.013523,0.002678,0.000431,0.000000
2800,0.0324,0.013523,0.002678,0.000431,0.000000
2900,0.0324,0.013523,0.002678,0.000431,0.000000
3000,0.0324,0.013523,0.002678,0.000431,0.000000
3100,0.0324,0.013523,0.002678,0.000431,0.000000
3200,0.0324,0.013523,0.002678,0.000431,0.000000
3300,0.0324,0.013523,0.002678,0.000431,0.000000
3400,0.0324,0.013523,0.002678,0.000431,0.000000
3500,0.0324,0.013523,0.002678,0.000431,0.000000
3600,0.0324,0.013523,0.002678,0.000431,0.000000
3700,0.0324,0.013523,0.002678,0.000431,0.000000
3800,0.0324,0.013523,0.002678,0.000431,0.000000
3900,0.0324,0.013523,0.002678,0.000431,0.000000
4000,0.0324,0.013523,0.002678,0.000431,0.000000
4100,0.0324,0.013523,0.002678,0.000431,0.000000
4200,0.0324,0.013523,0.002678,0.000431,0.000000
4300,0.0324,0.013523,0.002678,0.000431,0.000000
4400,0.0324,0.013523,0.002678,0.000431,0.000000
4500,0.0324,0.013523,0.002678,0.000431,0.000000
4600,0.0324,0.013523,0.002678,0.000431,0.000000
4700,0.0324,0.013523,0.002678,0.000431,0.000000
4800,0.0324,0.013523,0.002678,0.000431,0.000000
4900,0.0324,0.013523,0.002678,0.000431,0.000000
5000,0.0324,0.013523,0.002678,0.000431,0.000000
5100,0.0324,0.013523,0.002678,0.000431,0.000000
5200,0.0324,0.013523,0.002678,0.000431,0.001175
5300,0.0324,0.013523,0.002678,0.000431,0.000000
5400,0.0324,0.013523,0.002678,0.000431,0.025856
5500,0.0324,0.013523,0.002678,0.000431,0.000000
5600,0.0324,0.013523,0.002678,0.000431,0.024681
5700,0.0324,0.013523,0.002678,0.000431,0.061115
5800,0.0324,0.013523,0.002678,0.000431,0.009402
5900,0.0324,0.013523,0.002678,0.000431,0.022330
6000,0.0324,0.013523,0.002678,0.000431,0.048187
6100,0.0324,0.013523,0.002678,0.000431,0.000000
6200,0.0324,0.013523,0.002678,0.000431,0.021155
6300,0.0324,0.013523,0.002678,0.000431,0.011753
6400,0.0324,0.013523,0.002678,0.000431,0.003526
6500,0.0324,0.013523,0.002678,0.000431,0.025856
6600,0.0324,0.013523,0.002678,0.000431,0.036434
6700,0.0324,0.013523,0.002678,0.000431,0.065816
6800,0.0324,0.013523,0.002678,0.000431,0.032908
6900,0.0324,0.013523,0.002678,0.000431,0.064641
7000,0.0324,0.013523,0.002678,0.000431,0.005876
7100,0.0324,0.013523,0.002678,0.000431,0.002351
7200,0.0324,0.013523,0.002678,0.000431,0.010578
7300,0.0324,0.013523,0.002678,0.000431,0.001175
7400,0.0324,0.013523,0.002678,0.000431,0.007052
7500,0.0324,0.013523,0.002678,0.000431,0.002351
7600,0.0324,0.013523,0.002678,0.000431,0.005876
7700,0.0324,0.013523,0.002678,0.000431,0.005876
7800,0.0324,0.013523,0.002678,0.000431,0.002351
7900,0.0324,0.013523,0.002678,0.000431,0.007052
8000,0.0324,0.013523,0.002678,0.000431,0.002351
8100,0.0324,0.013523,0.002678,0.000431,0.004701
8200,0.0324,0.013523,0.002678,0.000431,0.003526
8300,0.0324,0.013523,0.002678,0.000431,0.003526
8400,0.0324,0.013523,0.002678,0.000431,0.001175
8500,0.0324,0.013523,0.002678,0.000431,0.003526
8600,0.0324,0.013523,0.002678,0.000431,0.001175
8700,0.0324,0.013523,0.002678,0.000431,0.002351
8800,0.0324,0.013523,0.002678,0.000431,0.002351
8900,0.0324,0.013523,0.002678,0.000431,0.000000
9000,0.0324,0.013523,0.002678,0.000431,0.001175
9100,0.0324,0.013523,0.002678,0.000431,0.000000
9200,0.0324,0.013523,0.002678,0.000431,0.000000
9300,0.0324,0.013523,0.002678,0.000431,0.000000
9400,0.0324,0.013523,0.002678,0.000431,0.000000
9500,0.0324,0.013523,0.002678,0.000431,0.000000
