Cycle,Area(mm^2),PeakDynamic(W),SubthresholdLeakage(W),GateLeakage(W),RunTimeDynamic(W)
7000000,0.0324,0.013523,0.002678,0.000431,0.023506
7000100,0.0324,0.013523,0.002678,0.000431,0.032908
7000200,0.0324,0.013523,0.002678,0.000431,0.032908
7000300,0.0324,0.013523,0.002678,0.000431,0.018805
7000400,0.0324,0.013523,0.002678,0.000431,0.023506
7000500,0.0324,0.013523,0.002678,0.000431,0.035258
7000600,0.0324,0.013523,0.002678,0.000431,0.039960
7000700,0.0324,0.013523,0.002678,0.000431,0.012928
7000800,0.0324,0.013523,0.002678,0.000431,0.043485
7000900,0.0324,0.013523,0.002678,0.000431,0.018805
7001000,0.0324,0.013523,0.002678,0.000431,0.032908
7001100,0.0324,0.013523,0.002678,0.000431,0.023506
7001200,0.0324,0.013523,0.002678,0.000431,0.037609
7001300,0.0324,0.013523,0.002678,0.000431,0.018805
7001400,0.0324,0.013523,0.002678,0.000431,0.023506
7001500,0.0324,0.013523,0.002678,0.000431,0.028207
7001600,0.0324,0.013523,0.002678,0.000431,0.011753
7001700,0.0324,0.013523,0.002678,0.000431,0.035258
7001800,0.0324,0.013523,0.002678,0.000431,0.017629
7001900,0.0324,0.013523,0.002678,0.000431,0.019980
7002000,0.0324,0.013523,0.002678,0.000431,0.028207
7002100,0.0324,0.013523,0.002678,0.000431,0.004701
7002200,0.0324,0.013523,0.002678,0.000431,0.032908
7002300,0.0324,0.013523,0.002678,0.000431,0.014103
7002400,0.0324,0.013523,0.002678,0.000431,0.018805
7002500,0.0324,0.013523,0.002678,0.000431,0.012928
7002600,0.0324,0.013523,0.002678,0.000431,0.029382
7002700,0.0324,0.013523,0.002678,0.000431,0.004701
7002800,0.0324,0.013523,0.002678,0.000431,0.032908
7002900,0.0324,0.013523,0.002678,0.000431,0.009402
7003000,0.0324,0.013523,0.002678,0.000431,0.023506
7003100,0.0324,0.013523,0.002678,0.000431,0.025856
7003200,0.0324,0.013523,0.002678,0.000431,0.016454
7003300,0.0324,0.013523,0.002678,0.000431,0.023506
7003400,0.0324,0.013523,0.002678,0.000431,0.009402
7003500,0.0324,0.013523,0.002678,0.000431,0.032908
7003600,0.0324,0.013523,0.002678,0.000431,0.009402
7003700,0.0324,0.013523,0.002678,0.000431,0.018805
7003800,0.0324,0.013523,0.002678,0.000431,0.018805
7003900,0.0324,0.013523,0.002678,0.000431,0.023506
7004000,0.0324,0.013523,0.002678,0.000431,0.014103
7004100,0.0324,0.013523,0.002678,0.000431,0.023506
7004200,0.0324,0.013523,0.002678,0.000431,0.015279
7004300,0.0324,0.013523,0.002678,0.000431,0.023506
7004400,0.0324,0.013523,0.002678,0.000431,0.015279
7004500,0.0324,0.013523,0.002678,0.000431,0.016454
7004600,0.0324,0.013523,0.002678,0.000431,0.032908
7004700,0.0324,0.013523,0.002678,0.000431,0.009402
7004800,0.0324,0.013523,0.002678,0.000431,0.027031
7004900,0.0324,0.013523,0.002678,0.000431,0.005876
7005000,0.0324,0.013523,0.002678,0.000431,0.025856
7005100,0.0324,0.013523,0.002678,0.000431,0.012928
7005200,0.0324,0.013523,0.002678,0.000431,0.022330
7005300,0.0324,0.013523,0.002678,0.000431,0.011753
7005400,0.0324,0.013523,0.002678,0.000431,0.022330
7005500,0.0324,0.013523,0.002678,0.000431,0.012928
7005600,0.0324,0.013523,0.002678,0.000431,0.018805
7005700,0.0324,0.013523,0.002678,0.000431,0.009402
7005800,0.0324,0.013523,0.002678,0.000431,0.014103
7005900,0.0324,0.013523,0.002678,0.000431,0.014103
7006000,0.0324,0.013523,0.002678,0.000431,0.009402
7006100,0.0324,0.013523,0.002678,0.000431,0.009402
7006200,0.0324,0.013523,0.002678,0.000431,0.012928
7006300,0.0324,0.013523,0.002678,0.000431,0.010578
7006400,0.0324,0.013523,0.002678,0.000431,0.014103
7006500,0.0324,0.013523,0.002678,0.000431,0.009402
7006600,0.0324,0.013523,0.002678,0.000431,0.014103
7006700,0.0324,0.013523,0.002678,0.000431,0.004701
7006800,0.0324,0.013523,0.002678,0.000431,0.014103
7006900,0.0324,0.013523,0.002678,0.000431,0.014103
7007000,0.0324,0.013523,0.002678,0.000431,0.009402
7007100,0.0324,0.013523,0.002678,0.000431,0.014103
7007200,0.0324,0.013523,0.002678,0.000431,0.014103
7007300,0.0324,0.013523,0.002678,0.000431,0.009402
7007400,0.0324,0.013523,0.002678,0.000431,0.009402
7007500,0.0324,0.013523,0.002678,0.000431,0.005876
7007600,0.0324,0.013523,0.002678,0.000431,0.017629
7007700,0.0324,0.013523,0.002678,0.000431,0.014103
7007800,0.0324,0.013523,0.002678,0.000431,0.004701
7007900,0.0324,0.013523,0.002678,0.000431,0.014103
7008000,0.0324,0.013523,0.002678,0.000431,0.014103
7008100,0.0324,0.013523,0.002678,0.000431,0.012928
7008200,0.0324,0.013523,0.002678,0.000431,0.005876
7008300,0.0324,0.013523,0.002678,0.000431,0.018805
7008400,0.0324,0.013523,0.002678,0.000431,0.008227
7008500,0.0324,0.013523,0.002678,0.000431,0.010578
7008600,0.0324,0.013523,0.002678,0.000431,0.018805
7008700,0.0324,0.013523,0.002678,0.000431,0.009402
7008800,0.0324,0.013523,0.002678,0.000431,0.004701
7008900,0.0324,0.013523,0.002678,0.000431,0.022330
7009000,0.0324,0.013523,0.002678,0.000431,0.005876
7009100,0.0324,0.013523,0.002678,0.000431,0.011753
7009200,0.0324,0.013523,0.002678,0.000431,0.016454
7009300,0.0324,0.013523,0.002678,0.000431,0.012928
7009400,0.0324,0.013523,0.002678,0.000431,0.005876
7009500,0.0324,0.013523,0.002678,0.000431,0.009402
7009600,0.0324,0.013523,0.002678,0.000431,0.018805
7009700,0.0324,0.013523,0.002678,0.000431,0.014103
7009800,0.0324,0.013523,0.002678,0.000431,0.009402
7009900,0.0324,0.013523,0.002678,0.000431,0.014103
7010000,0.0324,0.013523,0.002678,0.000431,0.004701
7010100,0.0324,0.013523,0.002678,0.000431,0.014103
7010200,0.0324,0.013523,0.002678,0.000431,0.014103
7010300,0.0324,0.013523,0.002678,0.000431,0.004701
7010400,0.0324,0.013523,0.002678,0.000431,0.018805
7010500,0.0324,0.013523,0.002678,0.000431,0.004701
7010600,0.0324,0.013523,0.002678,0.000431,0.014103
7010700,0.0324,0.013523,0.002678,0.000431,0.018805
7010800,0.0324,0.013523,0.002678,0.000431,0.004701
7010900,0.0324,0.013523,0.002678,0.000431,0.009402
7011000,0.0324,0.013523,0.002678,0.000431,0.018805
7011100,0.0324,0.013523,0.002678,0.000431,0.004701
7011200,0.0324,0.013523,0.002678,0.000431,0.009402
7011300,0.0324,0.013523,0.002678,0.000431,0.009402
7011400,0.0324,0.013523,0.002678,0.000431,0.014103
7011500,0.0324,0.013523,0.002678,0.000431,0.014103
7011600,0.0324,0.013523,0.002678,0.000431,0.009402
7011700,0.0324,0.013523,0.002678,0.000431,0.009402
7011800,0.0324,0.013523,0.002678,0.000431,0.009402
7011900,0.0324,0.013523,0.002678,0.000431,0.014103
7012000,0.0324,0.013523,0.002678,0.000431,0.009402
7012100,0.0324,0.013523,0.002678,0.000431,0.009402
7012200,0.0324,0.013523,0.002678,0.000431,0.018805
7012300,0.0324,0.013523,0.002678,0.000431,0.009402
7012400,0.0324,0.013523,0.002678,0.000431,0.004701
7012500,0.0324,0.013523,0.002678,0.000431,0.023506
7012600,0.0324,0.013523,0.002678,0.000431,0.004701
7012700,0.0324,0.013523,0.002678,0.000431,0.009402
7012800,0.0324,0.013523,0.002678,0.000431,0.014103
7012900,0.0324,0.013523,0.002678,0.000431,0.014103
7013000,0.0324,0.013523,0.002678,0.000431,0.009402
7013100,0.0324,0.013523,0.002678,0.000431,0.009402
7013200,0.0324,0.013523,0.002678,0.000431,0.018805
7013300,0.0324,0.013523,0.002678,0.000431,0.000000
7013400,0.0324,0.013523,0.002678,0.000431,0.018805
7013500,0.0324,0.013523,0.002678,0.000431,0.009402
7013600,0.0324,0.013523,0.002678,0.000431,0.009402
7013700,0.0324,0.013523,0.002678,0.000431,0.009402
7013800,0.0324,0.013523,0.002678,0.000431,0.009402
7013900,0.0324,0.013523,0.002678,0.000431,0.018805
7014000,0.0324,0.013523,0.002678,0.000431,0.004701
7014100,0.0324,0.013523,0.002678,0.000431,0.014103
7014200,0.0324,0.013523,0.002678,0.000431,0.018805
7014300,0.0324,0.013523,0.002678,0.000431,0.004701
7014400,0.0324,0.013523,0.002678,0.000431,0.009402
7014500,0.0324,0.013523,0.002678,0.000431,0.018805
7014600,0.0324,0.013523,0.002678,0.000431,0.004701
7014700,0.0324,0.013523,0.002678,0.000431,0.009402
7014800,0.0324,0.013523,0.002678,0.000431,0.014103
7014900,0.0324,0.013523,0.002678,0.000431,0.004701
7015000,0.0324,0.013523,0.002678,0.000431,0.018805
7015100,0.0324,0.013523,0.002678,0.000431,0.009402
7015200,0.0324,0.013523,0.002678,0.000431,0.014103
7015300,0.0324,0.013523,0.002678,0.000431,0.009402
7015400,0.0324,0.013523,0.002678,0.000431,0.007052
7015500,0.0324,0.013523,0.002678,0.000431,0.011753
7015600,0.0324,0.013523,0.002678,0.000431,0.009402
7015700,0.0324,0.013523,0.002678,0.000431,0.018805
7015800,0.0324,0.013523,0.002678,0.000431,0.009402
7015900,0.0324,0.013523,0.002678,0.000431,0.004701
7016000,0.0324,0.013523,0.002678,0.000431,0.016454
7016100,0.0324,0.013523,0.002678,0.000431,0.011753
7016200,0.0324,0.013523,0.002678,0.000431,0.009402
7016300,0.0324,0.013523,0.002678,0.000431,0.014103
7016400,0.0324,0.013523,0.002678,0.000431,0.014103
7016500,0.0324,0.013523,0.002678,0.000431,0.009402
7016600,0.0324,0.013523,0.002678,0.000431,0.004701
7016700,0.0324,0.013523,0.002678,0.000431,0.018805
7016800,0.0324,0.013523,0.002678,0.000431,0.009402
7016900,0.0324,0.013523,0.002678,0.000431,0.009402
7017000,0.0324,0.013523,0.002678,0.000431,0.014103
7017100,0.0324,0.013523,0.002678,0.000431,0.014103
7017200,0.0324,0.013523,0.002678,0.000431,0.009402
7017300,0.0324,0.013523,0.002678,0.000431,0.009402
7017400,0.0324,0.013523,0.002678,0.000431,0.014103
7017500,0.0324,0.013523,0.002678,0.000431,0.014103
7017600,0.0324,0.013523,0.002678,0.000431,0.004701
7017700,0.0324,0.013523,0.002678,0.000431,0.028207
7017800,0.0324,0.013523,0.002678,0.000431,0.009402
7017900,0.0324,0.013523,0.002678,0.000431,0.023506
7018000,0.0324,0.013523,0.002678,0.000431,0.007052
7018100,0.0324,0.013523,0.002678,0.000431,0.021155
7018200,0.0324,0.013523,0.002678,0.000431,0.018805
7018300,0.0324,0.013523,0.002678,0.000431,0.023506
7018400,0.0324,0.013523,0.002678,0.000431,0.010578
7018500,0.0324,0.013523,0.002678,0.000431,0.027031
7018600,0.0324,0.013523,0.002678,0.000431,0.016454
7018700,0.0324,0.013523,0.002678,0.000431,0.011753
7018800,0.0324,0.013523,0.002678,0.000431,0.018805
7018900,0.0324,0.013523,0.002678,0.000431,0.032908
7019000,0.0324,0.013523,0.002678,0.000431,0.018805
7019100,0.0324,0.013523,0.002678,0.000431,0.018805
7019200,0.0324,0.013523,0.002678,0.000431,0.023506
7019300,0.0324,0.013523,0.002678,0.000431,0.037609
7019400,0.0324,0.013523,0.002678,0.000431,0.018805
7019500,0.0324,0.013523,0.002678,0.000431,0.032908
7019600,0.0324,0.013523,0.002678,0.000431,0.030557
7019700,0.0324,0.013523,0.002678,0.000431,0.030557
7019800,0.0324,0.013523,0.002678,0.000431,0.019980
7019900,0.0324,0.013523,0.002678,0.000431,0.045836
7020000,0.0324,0.013523,0.002678,0.000431,0.042310
7020100,0.0324,0.013523,0.002678,0.000431,0.014103
7020200,0.0324,0.013523,0.002678,0.000431,0.037609
7020300,0.0324,0.013523,0.002678,0.000431,0.025856
7020400,0.0324,0.013523,0.002678,0.000431,0.030557
7020500,0.0324,0.013523,0.002678,0.000431,0.018805
7020600,0.0324,0.013523,0.002678,0.000431,0.041135
7020700,0.0324,0.013523,0.002678,0.000431,0.029382
7020800,0.0324,0.013523,0.002678,0.000431,0.028207
7020900,0.0324,0.013523,0.002678,0.000431,0.032908
7021000,0.0324,0.013523,0.002678,0.000431,0.051712
7021100,0.0324,0.013523,0.002678,0.000431,0.047011
7021200,0.0324,0.013523,0.002678,0.000431,0.015279
7021300,0.0324,0.013523,0.002678,0.000431,0.059939
7021400,0.0324,0.013523,0.002678,0.000431,0.023506
7021500,0.0324,0.013523,0.002678,0.000431,0.032908
7021600,0.0324,0.013523,0.002678,0.000431,0.032908
7021700,0.0324,0.013523,0.002678,0.000431,0.032908
7021800,0.0324,0.013523,0.002678,0.000431,0.014103
7021900,0.0324,0.013523,0.002678,0.000431,0.037609
7022000,0.0324,0.013523,0.002678,0.000431,0.023506
7022100,0.0324,0.013523,0.002678,0.000431,0.028207
7022200,0.0324,0.013523,0.002678,0.000431,0.029382
7022300,0.0324,0.013523,0.002678,0.000431,0.031733
7022400,0.0324,0.013523,0.002678,0.000431,0.022330
7022500,0.0324,0.013523,0.002678,0.000431,0.023506
7022600,0.0324,0.013523,0.002678,0.000431,0.048187
7022700,0.0324,0.013523,0.002678,0.000431,0.008227
7022800,0.0324,0.013523,0.002678,0.000431,0.034083
7022900,0.0324,0.013523,0.002678,0.000431,0.028207
7023000,0.0324,0.013523,0.002678,0.000431,0.014103
7023100,0.0324,0.013523,0.002678,0.000431,0.014103
7023200,0.0324,0.013523,0.002678,0.000431,0.018805
7023300,0.0324,0.013523,0.002678,0.000431,0.023506
7023400,0.0324,0.013523,0.002678,0.000431,0.000000
7023500,0.0324,0.013523,0.002678,0.000431,0.014103
7023600,0.0324,0.013523,0.002678,0.000431,0.018805
7023700,0.0324,0.013523,0.002678,0.000431,0.014103
7023800,0.0324,0.013523,0.002678,0.000431,0.000000
7023900,0.0324,0.013523,0.002678,0.000431,0.028207
7024000,0.0324,0.013523,0.002678,0.000431,0.016454
7024100,0.0324,0.013523,0.002678,0.000431,0.007052
7024200,0.0324,0.013523,0.002678,0.000431,0.022330
7024300,0.0324,0.013523,0.002678,0.000431,0.005876
7024400,0.0324,0.013523,0.002678,0.000431,0.009402
7024500,0.0324,0.013523,0.002678,0.000431,0.014103
7024600,0.0324,0.013523,0.002678,0.000431,0.014103
7024700,0.0324,0.013523,0.002678,0.000431,0.000000
7024800,0.0324,0.013523,0.002678,0.000431,0.004701
7024900,0.0324,0.013523,0.002678,0.000431,0.014103
7025000,0.0324,0.013523,0.002678,0.000431,0.000000
7025100,0.0324,0.013523,0.002678,0.000431,0.004701
7025200,0.0324,0.013523,0.002678,0.000431,0.009402
7025300,0.0324,0.013523,0.002678,0.000431,0.004701
7025400,0.0324,0.013523,0.002678,0.000431,0.004701
7025500,0.0324,0.013523,0.002678,0.000431,0.000000
7025600,0.0324,0.013523,0.002678,0.000431,0.014103
7025700,0.0324,0.013523,0.002678,0.000431,0.004701
7025800,0.0324,0.013523,0.002678,0.000431,0.000000
7025900,0.0324,0.013523,0.002678,0.000431,0.009402
7026000,0.0324,0.013523,0.002678,0.000431,0.004701
7026100,0.0324,0.013523,0.002678,0.000431,0.004701
7026200,0.0324,0.013523,0.002678,0.000431,0.004701
7026300,0.0324,0.013523,0.002678,0.000431,0.009402
7026400,0.0324,0.013523,0.002678,0.000431,0.004701
7026500,0.0324,0.013523,0.002678,0.000431,0.004701
7026600,0.0324,0.013523,0.002678,0.000431,0.009402
7026700,0.0324,0.013523,0.002678,0.000431,0.000000
7026800,0.0324,0.013523,0.002678,0.000431,0.004701
7026900,0.0324,0.013523,0.002678,0.000431,0.014103
7027000,0.0324,0.013523,0.002678,0.000431,0.000000
7027100,0.0324,0.013523,0.002678,0.000431,0.004701
7027200,0.0324,0.013523,0.002678,0.000431,0.009402
7027300,0.0324,0.013523,0.002678,0.000431,0.004701
7027400,0.0324,0.013523,0.002678,0.000431,0.004701
7027500,0.0324,0.013523,0.002678,0.000431,0.009402
7027600,0.0324,0.013523,0.002678,0.000431,0.004701
7027700,0.0324,0.013523,0.002678,0.000431,0.004701
7027800,0.0324,0.013523,0.002678,0.000431,0.009402
7027900,0.0324,0.013523,0.002678,0.000431,0.000000
7028000,0.0324,0.013523,0.002678,0.000431,0.009402
7028100,0.0324,0.013523,0.002678,0.000431,0.004701
7028200,0.0324,0.013523,0.002678,0.000431,0.004701
7028300,0.0324,0.013523,0.002678,0.000431,0.009402
7028400,0.0324,0.013523,0.002678,0.000431,0.004701
7028500,0.0324,0.013523,0.002678,0.000431,0.004701
7028600,0.0324,0.013523,0.002678,0.000431,0.004701
7028700,0.0324,0.013523,0.002678,0.000431,0.009402
7028800,0.0324,0.013523,0.002678,0.000431,0.004701
7028900,0.0324,0.013523,0.002678,0.000431,0.004701
7029000,0.0324,0.013523,0.002678,0.000431,0.009402
7029100,0.0324,0.013523,0.002678,0.000431,0.004701
7029200,0.0324,0.013523,0.002678,0.000431,0.000000
7029300,0.0324,0.013523,0.002678,0.000431,0.004701
7029400,0.0324,0.013523,0.002678,0.000431,0.009402
7029500,0.0324,0.013523,0.002678,0.000431,0.004701
7029600,0.0324,0.013523,0.002678,0.000431,0.004701
7029700,0.0324,0.013523,0.002678,0.000431,0.009402
7029800,0.0324,0.013523,0.002678,0.000431,0.004701
7029900,0.0324,0.013523,0.002678,0.000431,0.004701
7030000,0.0324,0.013523,0.002678,0.000431,0.004701
7030100,0.0324,0.013523,0.002678,0.000431,0.004701
7030200,0.0324,0.013523,0.002678,0.000431,0.009402
7030300,0.0324,0.013523,0.002678,0.000431,0.004701
7030400,0.0324,0.013523,0.002678,0.000431,0.004701
7030500,0.0324,0.013523,0.002678,0.000431,0.009402
7030600,0.0324,0.013523,0.002678,0.000431,0.000000
7030700,0.0324,0.013523,0.002678,0.000431,0.009402
7030800,0.0324,0.013523,0.002678,0.000431,0.004701
7030900,0.0324,0.013523,0.002678,0.000431,0.004701
7031000,0.0324,0.013523,0.002678,0.000431,0.009402
7031100,0.0324,0.013523,0.002678,0.000431,0.004701
7031200,0.0324,0.013523,0.002678,0.000431,0.004701
7031300,0.0324,0.013523,0.002678,0.000431,0.009402
7031400,0.0324,0.013523,0.002678,0.000431,0.004701
7031500,0.0324,0.013523,0.002678,0.000431,0.000000
7031600,0.0324,0.013523,0.002678,0.000431,0.023506
7031700,0.0324,0.013523,0.002678,0.000431,0.004701
7031800,0.0324,0.013523,0.002678,0.000431,0.014103
7031900,0.0324,0.013523,0.002678,0.000431,0.000000
7032000,0.0324,0.013523,0.002678,0.000431,0.022330
7032100,0.0324,0.013523,0.002678,0.000431,0.005876
7032200,0.0324,0.013523,0.002678,0.000431,0.014103
7032300,0.0324,0.013523,0.002678,0.000431,0.004701
7032400,0.0324,0.013523,0.002678,0.000431,0.023506
7032500,0.0324,0.013523,0.002678,0.000431,0.000000
7032600,0.0324,0.013523,0.002678,0.000431,0.014103
7032700,0.0324,0.013523,0.002678,0.000431,0.015279
7032800,0.0324,0.013523,0.002678,0.000431,0.012928
7032900,0.0324,0.013523,0.002678,0.000431,0.007052
7033000,0.0324,0.013523,0.002678,0.000431,0.016454
7033100,0.0324,0.013523,0.002678,0.000431,0.018805
7033200,0.0324,0.013523,0.002678,0.000431,0.000000
7033300,0.0324,0.013523,0.002678,0.000431,0.018805
7033400,0.0324,0.013523,0.002678,0.000431,0.009402
7033500,0.0324,0.013523,0.002678,0.000431,0.014103
7033600,0.0324,0.013523,0.002678,0.000431,0.004701
7033700,0.0324,0.013523,0.002678,0.000431,0.018805
7033800,0.0324,0.013523,0.002678,0.000431,0.004701
7033900,0.0324,0.013523,0.002678,0.000431,0.014103
7034000,0.0324,0.013523,0.002678,0.000431,0.004701
7034100,0.0324,0.013523,0.002678,0.000431,0.028207
7034200,0.0324,0.013523,0.002678,0.000431,0.018805
7034300,0.0324,0.013523,0.002678,0.000431,0.014103
7034400,0.0324,0.013523,0.002678,0.000431,0.018805
7034500,0.0324,0.013523,0.002678,0.000431,0.018805
7034600,0.0324,0.013523,0.002678,0.000431,0.018805
7034700,0.0324,0.013523,0.002678,0.000431,0.014103
7034800,0.0324,0.013523,0.002678,0.000431,0.014103
7034900,0.0324,0.013523,0.002678,0.000431,0.018805
7035000,0.0324,0.013523,0.002678,0.000431,0.018805
7035100,0.0324,0.013523,0.002678,0.000431,0.014103
7035200,0.0324,0.013523,0.002678,0.000431,0.028207
7035300,0.0324,0.013523,0.002678,0.000431,0.018805
7035400,0.0324,0.013523,0.002678,0.000431,0.010578
7035500,0.0324,0.013523,0.002678,0.000431,0.012928
7035600,0.0324,0.013523,0.002678,0.000431,0.023506
7035700,0.0324,0.013523,0.002678,0.000431,0.000000
7035800,0.0324,0.013523,0.002678,0.000431,0.014103
7035900,0.0324,0.013523,0.002678,0.000431,0.000000
7036000,0.0324,0.013523,0.002678,0.000431,0.023506
7036100,0.0324,0.013523,0.002678,0.000431,0.000000
7036200,0.0324,0.013523,0.002678,0.000431,0.014103
7036300,0.0324,0.013523,0.002678,0.000431,0.009402
7036400,0.0324,0.013523,0.002678,0.000431,0.014103
7036500,0.0324,0.013523,0.002678,0.000431,0.000000
7036600,0.0324,0.013523,0.002678,0.000431,0.014103
7036700,0.0324,0.013523,0.002678,0.000431,0.032908
7036800,0.0324,0.013523,0.002678,0.000431,0.000000
7036900,0.0324,0.013523,0.002678,0.000431,0.028207
7037000,0.0324,0.013523,0.002678,0.000431,0.017629
7037100,0.0324,0.013523,0.002678,0.000431,0.015279
7037200,0.0324,0.013523,0.002678,0.000431,0.014103
7037300,0.0324,0.013523,0.002678,0.000431,0.014103
7037400,0.0324,0.013523,0.002678,0.000431,0.018805
7037500,0.0324,0.013523,0.002678,0.000431,0.014103
7037600,0.0324,0.013523,0.002678,0.000431,0.014103
7037700,0.0324,0.013523,0.002678,0.000431,0.018805
7037800,0.0324,0.013523,0.002678,0.000431,0.022330
7037900,0.0324,0.013523,0.002678,0.000431,0.001175
7038000,0.0324,0.013523,0.002678,0.000431,0.023506
7038100,0.0324,0.013523,0.002678,0.000431,0.004701
7038200,0.0324,0.013523,0.002678,0.000431,0.014103
7038300,0.0324,0.013523,0.002678,0.000431,0.000000
7038400,0.0324,0.013523,0.002678,0.000431,0.018805
7038500,0.0324,0.013523,0.002678,0.000431,0.014103
7038600,0.0324,0.013523,0.002678,0.000431,0.000000
7038700,0.0324,0.013523,0.002678,0.000431,0.018805
7038800,0.0324,0.013523,0.002678,0.000431,0.000000
7038900,0.0324,0.013523,0.002678,0.000431,0.014103
7039000,0.0324,0.013523,0.002678,0.000431,0.004701
7039100,0.0324,0.013523,0.002678,0.000431,0.014103
7039200,0.0324,0.013523,0.002678,0.000431,0.000000
7039300,0.0324,0.013523,0.002678,0.000431,0.014103
7039400,0.0324,0.013523,0.002678,0.000431,0.004701
7039500,0.0324,0.013523,0.002678,0.000431,0.014103
7039600,0.0324,0.013523,0.002678,0.000431,0.014103
7039700,0.0324,0.013523,0.002678,0.000431,0.004701
7039800,0.0324,0.013523,0.002678,0.000431,0.014103
7039900,0.0324,0.013523,0.002678,0.000431,0.000000
7040000,0.0324,0.013523,0.002678,0.000431,0.018805
7040100,0.0324,0.013523,0.002678,0.000431,0.000000
7040200,0.0324,0.013523,0.002678,0.000431,0.014103
7040300,0.0324,0.013523,0.002678,0.000431,0.004701
7040400,0.0324,0.013523,0.002678,0.000431,0.009402
7040500,0.0324,0.013523,0.002678,0.000431,0.000000
7040600,0.0324,0.013523,0.002678,0.000431,0.014103
7040700,0.0324,0.013523,0.002678,0.000431,0.000000
7040800,0.0324,0.013523,0.002678,0.000431,0.000000
7040900,0.0324,0.013523,0.002678,0.000431,0.004701
7041000,0.0324,0.013523,0.002678,0.000431,0.000000
7041100,0.0324,0.013523,0.002678,0.000431,0.000000
7041200,0.0324,0.013523,0.002678,0.000431,0.004701
7041300,0.0324,0.013523,0.002678,0.000431,0.000000
7041400,0.0324,0.013523,0.002678,0.000431,0.000000
7041500,0.0324,0.013523,0.002678,0.000431,0.004701
7041600,0.0324,0.013523,0.002678,0.000431,0.000000
7041700,0.0324,0.013523,0.002678,0.000431,0.000000
7041800,0.0324,0.013523,0.002678,0.000431,0.000000
7041900,0.0324,0.013523,0.002678,0.000431,0.004701
7042000,0.0324,0.013523,0.002678,0.000431,0.000000
7042100,0.0324,0.013523,0.002678,0.000431,0.000000
7042200,0.0324,0.013523,0.002678,0.000431,0.004701
7042300,0.0324,0.013523,0.002678,0.000431,0.000000
7042400,0.0324,0.013523,0.002678,0.000431,0.000000
7042500,0.0324,0.013523,0.002678,0.000431,0.000000
7042600,0.0324,0.013523,0.002678,0.000431,0.004701
7042700,0.0324,0.013523,0.002678,0.000431,0.000000
7042800,0.0324,0.013523,0.002678,0.000431,0.000000
7042900,0.0324,0.013523,0.002678,0.000431,0.004701
7043000,0.0324,0.013523,0.002678,0.000431,0.000000
7043100,0.0324,0.013523,0.002678,0.000431,0.000000
7043200,0.0324,0.013523,0.002678,0.000431,0.000000
7043300,0.0324,0.013523,0.002678,0.000431,0.004701
7043400,0.0324,0.013523,0.002678,0.000431,0.000000
7043500,0.0324,0.013523,0.002678,0.000431,0.000000
7043600,0.0324,0.013523,0.002678,0.000431,0.004701
7043700,0.0324,0.013523,0.002678,0.000431,0.000000
7043800,0.0324,0.013523,0.002678,0.000431,0.000000
7043900,0.0324,0.013523,0.002678,0.000431,0.004701
7044000,0.0324,0.013523,0.002678,0.000431,0.000000
7044100,0.0324,0.013523,0.002678,0.000431,0.000000
7044200,0.0324,0.013523,0.002678,0.000431,0.004701
7044300,0.0324,0.013523,0.002678,0.000431,0.000000
7044400,0.0324,0.013523,0.002678,0.000431,0.000000
7044500,0.0324,0.013523,0.002678,0.000431,0.004701
7044600,0.0324,0.013523,0.002678,0.000431,0.000000
7044700,0.0324,0.013523,0.002678,0.000431,0.000000
7044800,0.0324,0.013523,0.002678,0.000431,0.004701
7044900,0.0324,0.013523,0.002678,0.000431,0.000000
7045000,0.0324,0.013523,0.002678,0.000431,0.000000
7045100,0.0324,0.013523,0.002678,0.000431,0.000000
7045200,0.0324,0.013523,0.002678,0.000431,0.004701
7045300,0.0324,0.013523,0.002678,0.000431,0.000000
7045400,0.0324,0.013523,0.002678,0.000431,0.000000
7045500,0.0324,0.013523,0.002678,0.000431,0.004701
7045600,0.0324,0.013523,0.002678,0.000431,0.000000
7045700,0.0324,0.013523,0.002678,0.000431,0.000000
7045800,0.0324,0.013523,0.002678,0.000431,0.000000
7045900,0.0324,0.013523,0.002678,0.000431,0.004701
7046000,0.0324,0.013523,0.002678,0.000431,0.000000
7046100,0.0324,0.013523,0.002678,0.000431,0.000000
7046200,0.0324,0.013523,0.002678,0.000431,0.004701
7046300,0.0324,0.013523,0.002678,0.000431,0.000000
7046400,0.0324,0.013523,0.002678,0.000431,0.000000
7046500,0.0324,0.013523,0.002678,0.000431,0.004701
7046600,0.0324,0.013523,0.002678,0.000431,0.000000
7046700,0.0324,0.013523,0.002678,0.000431,0.000000
7046800,0.0324,0.013523,0.002678,0.000431,0.004701
7046900,0.0324,0.013523,0.002678,0.000431,0.000000
7047000,0.0324,0.013523,0.002678,0.000431,0.000000
7047100,0.0324,0.013523,0.002678,0.000431,0.000000
7047200,0.0324,0.013523,0.002678,0.000431,0.004701
7047300,0.0324,0.013523,0.002678,0.000431,0.000000
7047400,0.0324,0.013523,0.002678,0.000431,0.000000
7047500,0.0324,0.013523,0.002678,0.000431,0.003526
7047600,0.0324,0.013523,0.002678,0.000431,0.001175
7047700,0.0324,0.013523,0.002678,0.000431,0.000000
7047800,0.0324,0.013523,0.002678,0.000431,0.004701
7047900,0.0324,0.013523,0.002678,0.000431,0.000000
7048000,0.0324,0.013523,0.002678,0.000431,0.000000
7048100,0.0324,0.013523,0.002678,0.000431,0.004701
7048200,0.0324,0.013523,0.002678,0.000431,0.000000
7048300,0.0324,0.013523,0.002678,0.000431,0.000000
7048400,0.0324,0.013523,0.002678,0.000431,0.004701
7048500,0.0324,0.013523,0.002678,0.000431,0.000000
7048600,0.0324,0.013523,0.002678,0.000431,0.000000
7048700,0.0324,0.013523,0.002678,0.000431,0.000000
7048800,0.0324,0.013523,0.002678,0.000431,0.004701
7048900,0.0324,0.013523,0.002678,0.000431,0.000000
7049000,0.0324,0.013523,0.002678,0.000431,0.004701
7049100,0.0324,0.013523,0.002678,0.000431,0.000000
7049200,0.0324,0.013523,0.002678,0.000431,0.000000
7049300,0.0324,0.013523,0.002678,0.000431,0.001175
7049400,0.0324,0.013523,0.002678,0.000431,0.003526
7049500,0.0324,0.013523,0.002678,0.000431,0.000000
7049600,0.0324,0.013523,0.002678,0.000431,0.004701
7049700,0.0324,0.013523,0.002678,0.000431,0.000000
7049800,0.0324,0.013523,0.002678,0.000431,0.000000
7049900,0.0324,0.013523,0.002678,0.000431,0.000000
7050000,0.0324,0.013523,0.002678,0.000431,0.004701
7050100,0.0324,0.013523,0.002678,0.000431,0.000000
7050200,0.0324,0.013523,0.002678,0.000431,0.000000
7050300,0.0324,0.013523,0.002678,0.000431,0.000000
7050400,0.0324,0.013523,0.002678,0.000431,0.004701
7050500,0.0324,0.013523,0.002678,0.000431,0.000000
7050600,0.0324,0.013523,0.002678,0.000431,0.000000
7050700,0.0324,0.013523,0.002678,0.000431,0.004701
7050800,0.0324,0.013523,0.002678,0.000431,0.000000
7050900,0.0324,0.013523,0.002678,0.000431,0.003526
7051000,0.0324,0.013523,0.002678,0.000431,0.001175
7051100,0.0324,0.013523,0.002678,0.000431,0.000000
7051200,0.0324,0.013523,0.002678,0.000431,0.000000
7051300,0.0324,0.013523,0.002678,0.000431,0.004701
7051400,0.0324,0.013523,0.002678,0.000431,0.000000
7051500,0.0324,0.013523,0.002678,0.000431,0.000000
7051600,0.0324,0.013523,0.002678,0.000431,0.000000
7051700,0.0324,0.013523,0.002678,0.000431,0.004701
7051800,0.0324,0.013523,0.002678,0.000431,0.000000
7051900,0.0324,0.013523,0.002678,0.000431,0.000000
7052000,0.0324,0.013523,0.002678,0.000431,0.004701
7052100,0.0324,0.013523,0.002678,0.000431,0.000000
7052200,0.0324,0.013523,0.002678,0.000431,0.000000
7052300,0.0324,0.013523,0.002678,0.000431,0.004701
7052400,0.0324,0.013523,0.002678,0.000431,0.000000
7052500,0.0324,0.013523,0.002678,0.000431,0.000000
7052600,0.0324,0.013523,0.002678,0.000431,0.004701
7052700,0.0324,0.013523,0.002678,0.000431,0.000000
7052800,0.0324,0.013523,0.002678,0.000431,0.000000
7052900,0.0324,0.013523,0.002678,0.000431,0.000000
7053000,0.0324,0.013523,0.002678,0.000431,0.004701
7053100,0.0324,0.013523,0.002678,0.000431,0.000000
7053200,0.0324,0.013523,0.002678,0.000431,0.000000
7053300,0.0324,0.013523,0.002678,0.000431,0.004701
7053400,0.0324,0.013523,0.002678,0.000431,0.000000
7053500,0.0324,0.013523,0.002678,0.000431,0.000000
7053600,0.0324,0.013523,0.002678,0.000431,0.004701
7053700,0.0324,0.013523,0.002678,0.000431,0.000000
7053800,0.0324,0.013523,0.002678,0.000431,0.000000
7053900,0.0324,0.013523,0.002678,0.000431,0.004701
7054000,0.0324,0.013523,0.002678,0.000431,0.000000
7054100,0.0324,0.013523,0.002678,0.000431,0.000000
7054200,0.0324,0.013523,0.002678,0.000431,0.000000
7054300,0.0324,0.013523,0.002678,0.000431,0.004701
7054400,0.0324,0.013523,0.002678,0.000431,0.000000
7054500,0.0324,0.013523,0.002678,0.000431,0.000000
7054600,0.0324,0.013523,0.002678,0.000431,0.004701
7054700,0.0324,0.013523,0.002678,0.000431,0.000000
7054800,0.0324,0.013523,0.002678,0.000431,0.000000
7054900,0.0324,0.013523,0.002678,0.000431,0.004701
7055000,0.0324,0.013523,0.002678,0.000431,0.000000
7055100,0.0324,0.013523,0.002678,0.000431,0.000000
7055200,0.0324,0.013523,0.002678,0.000431,0.004701
7055300,0.0324,0.013523,0.002678,0.000431,0.000000
7055400,0.0324,0.013523,0.002678,0.000431,0.000000
7055500,0.0324,0.013523,0.002678,0.000431,0.004701
7055600,0.0324,0.013523,0.002678,0.000431,0.000000
7055700,0.0324,0.013523,0.002678,0.000431,0.000000
7055800,0.0324,0.013523,0.002678,0.000431,0.004701
7055900,0.0324,0.013523,0.002678,0.000431,0.000000
7056000,0.0324,0.013523,0.002678,0.000431,0.000000
7056100,0.0324,0.013523,0.002678,0.000431,0.000000
7056200,0.0324,0.013523,0.002678,0.000431,0.004701
7056300,0.0324,0.013523,0.002678,0.000431,0.000000
7056400,0.0324,0.013523,0.002678,0.000431,0.000000
7056500,0.0324,0.013523,0.002678,0.000431,0.004701
7056600,0.0324,0.013523,0.002678,0.000431,0.000000
7056700,0.0324,0.013523,0.002678,0.000431,0.000000
7056800,0.0324,0.013523,0.002678,0.000431,0.004701
7056900,0.0324,0.013523,0.002678,0.000431,0.000000
7057000,0.0324,0.013523,0.002678,0.000431,0.000000
7057100,0.0324,0.013523,0.002678,0.000431,0.004701
7057200,0.0324,0.013523,0.002678,0.000431,0.000000
7057300,0.0324,0.013523,0.002678,0.000431,0.000000
7057400,0.0324,0.013523,0.002678,0.000431,0.004701
7057500,0.0324,0.013523,0.002678,0.000431,0.000000
7057600,0.0324,0.013523,0.002678,0.000431,0.000000
7057700,0.0324,0.013523,0.002678,0.000431,0.004701
7057800,0.0324,0.013523,0.002678,0.000431,0.000000
7057900,0.0324,0.013523,0.002678,0.000431,0.000000
7058000,0.0324,0.013523,0.002678,0.000431,0.004701
7058100,0.0324,0.013523,0.002678,0.000431,0.000000
7058200,0.0324,0.013523,0.002678,0.000431,0.000000
7058300,0.0324,0.013523,0.002678,0.000431,0.004701
7058400,0.0324,0.013523,0.002678,0.000431,0.000000
7058500,0.0324,0.013523,0.002678,0.000431,0.000000
7058600,0.0324,0.013523,0.002678,0.000431,0.004701
7058700,0.0324,0.013523,0.002678,0.000431,0.000000
7058800,0.0324,0.013523,0.002678,0.000431,0.000000
7058900,0.0324,0.013523,0.002678,0.000431,0.004701
7059000,0.0324,0.013523,0.002678,0.000431,0.000000
7059100,0.0324,0.013523,0.002678,0.000431,0.000000
7059200,0.0324,0.013523,0.002678,0.000431,0.004701
7059300,0.0324,0.013523,0.002678,0.000431,0.000000
7059400,0.0324,0.013523,0.002678,0.000431,0.000000
7059500,0.0324,0.013523,0.002678,0.000431,0.004701
7059600,0.0324,0.013523,0.002678,0.000431,0.000000
7059700,0.0324,0.013523,0.002678,0.000431,0.000000
7059800,0.0324,0.013523,0.002678,0.000431,0.000000
7059900,0.0324,0.013523,0.002678,0.000431,0.004701
7060000,0.0324,0.013523,0.002678,0.000431,0.000000
7060100,0.0324,0.013523,0.002678,0.000431,0.000000
7060200,0.0324,0.013523,0.002678,0.000431,0.004701
7060300,0.0324,0.013523,0.002678,0.000431,0.000000
7060400,0.0324,0.013523,0.002678,0.000431,0.000000
7060500,0.0324,0.013523,0.002678,0.000431,0.000000
7060600,0.0324,0.013523,0.002678,0.000431,0.004701
7060700,0.0324,0.013523,0.002678,0.000431,0.000000
7060800,0.0324,0.013523,0.002678,0.000431,0.000000
7060900,0.0324,0.013523,0.002678,0.000431,0.004701
7061000,0.0324,0.013523,0.002678,0.000431,0.000000
7061100,0.0324,0.013523,0.002678,0.000431,0.000000
7061200,0.0324,0.013523,0.002678,0.000431,0.004701
7061300,0.0324,0.013523,0.002678,0.000431,0.000000
7061400,0.0324,0.013523,0.002678,0.000431,0.000000
7061500,0.0324,0.013523,0.002678,0.000431,0.004701
7061600,0.0324,0.013523,0.002678,0.000431,0.000000
7061700,0.0324,0.013523,0.002678,0.000431,0.000000
7061800,0.0324,0.013523,0.002678,0.000431,0.004701
7061900,0.0324,0.013523,0.002678,0.000431,0.000000
7062000,0.0324,0.013523,0.002678,0.000431,0.000000
7062100,0.0324,0.013523,0.002678,0.000431,0.004701
7062200,0.0324,0.013523,0.002678,0.000431,0.000000
7062300,0.0324,0.013523,0.002678,0.000431,0.000000
7062400,0.0324,0.013523,0.002678,0.000431,0.004701
7062500,0.0324,0.013523,0.002678,0.000431,0.000000
7062600,0.0324,0.013523,0.002678,0.000431,0.000000
7062700,0.0324,0.013523,0.002678,0.000431,0.004701
7062800,0.0324,0.013523,0.002678,0.000431,0.000000
7062900,0.0324,0.013523,0.002678,0.000431,0.000000
7063000,0.0324,0.013523,0.002678,0.000431,0.004701
7063100,0.0324,0.013523,0.002678,0.000431,0.000000
7063200,0.0324,0.013523,0.002678,0.000431,0.000000
7063300,0.0324,0.013523,0.002678,0.000431,0.004701
7063400,0.0324,0.013523,0.002678,0.000431,0.000000
7063500,0.0324,0.013523,0.002678,0.000431,0.000000
7063600,0.0324,0.013523,0.002678,0.000431,0.004701
7063700,0.0324,0.013523,0.002678,0.000431,0.000000
7063800,0.0324,0.013523,0.002678,0.000431,0.000000
7063900,0.0324,0.013523,0.002678,0.000431,0.000000
7064000,0.0324,0.013523,0.002678,0.000431,0.004701
7064100,0.0324,0.013523,0.002678,0.000431,0.000000
7064200,0.0324,0.013523,0.002678,0.000431,0.000000
7064300,0.0324,0.013523,0.002678,0.000431,0.004701
7064400,0.0324,0.013523,0.002678,0.000431,0.000000
7064500,0.0324,0.013523,0.002678,0.000431,0.000000
7064600,0.0324,0.013523,0.002678,0.000431,0.000000
7064700,0.0324,0.013523,0.002678,0.000431,0.004701
7064800,0.0324,0.013523,0.002678,0.000431,0.000000
7064900,0.0324,0.013523,0.002678,0.000431,0.004701
7065000,0.0324,0.013523,0.002678,0.000431,0.000000
7065100,0.0324,0.013523,0.002678,0.000431,0.000000
7065200,0.0324,0.013523,0.002678,0.000431,0.000000
7065300,0.0324,0.013523,0.002678,0.000431,0.004701
7065400,0.0324,0.013523,0.002678,0.000431,0.000000
7065500,0.0324,0.013523,0.002678,0.000431,0.000000
7065600,0.0324,0.013523,0.002678,0.000431,0.001175
7065700,0.0324,0.013523,0.002678,0.000431,0.003526
7065800,0.0324,0.013523,0.002678,0.000431,0.000000
7065900,0.0324,0.013523,0.002678,0.000431,0.000000
7066000,0.0324,0.013523,0.002678,0.000431,0.004701
7066100,0.0324,0.013523,0.002678,0.000431,0.000000
7066200,0.0324,0.013523,0.002678,0.000431,0.000000
7066300,0.0324,0.013523,0.002678,0.000431,0.004701
7066400,0.0324,0.013523,0.002678,0.000431,0.000000
7066500,0.0324,0.013523,0.002678,0.000431,0.000000
7066600,0.0324,0.013523,0.002678,0.000431,0.000000
7066700,0.0324,0.013523,0.002678,0.000431,0.004701
7066800,0.0324,0.013523,0.002678,0.000431,0.000000
7066900,0.0324,0.013523,0.002678,0.000431,0.000000
7067000,0.0324,0.013523,0.002678,0.000431,0.000000
7067100,0.0324,0.013523,0.002678,0.000431,0.004701
7067200,0.0324,0.013523,0.002678,0.000431,0.000000
7067300,0.0324,0.013523,0.002678,0.000431,0.000000
7067400,0.0324,0.013523,0.002678,0.000431,0.004701
7067500,0.0324,0.013523,0.002678,0.000431,0.000000
7067600,0.0324,0.013523,0.002678,0.000431,0.000000
7067700,0.0324,0.013523,0.002678,0.000431,0.000000
7067800,0.0324,0.013523,0.002678,0.000431,0.004701
7067900,0.0324,0.013523,0.002678,0.000431,0.000000
7068000,0.0324,0.013523,0.002678,0.000431,0.000000
7068100,0.0324,0.013523,0.002678,0.000431,0.004701
7068200,0.0324,0.013523,0.002678,0.000431,0.000000
7068300,0.0324,0.013523,0.002678,0.000431,0.000000
7068400,0.0324,0.013523,0.002678,0.000431,0.004701
7068500,0.0324,0.013523,0.002678,0.000431,0.000000
7068600,0.0324,0.013523,0.002678,0.000431,0.000000
7068700,0.0324,0.013523,0.002678,0.000431,0.004701
7068800,0.0324,0.013523,0.002678,0.000431,0.000000
7068900,0.0324,0.013523,0.002678,0.000431,0.000000
7069000,0.0324,0.013523,0.002678,0.000431,0.004701
7069100,0.0324,0.013523,0.002678,0.000431,0.000000
7069200,0.0324,0.013523,0.002678,0.000431,0.000000
7069300,0.0324,0.013523,0.002678,0.000431,0.004701
7069400,0.0324,0.013523,0.002678,0.000431,0.000000
7069500,0.0324,0.013523,0.002678,0.000431,0.000000
7069600,0.0324,0.013523,0.002678,0.000431,0.000000
7069700,0.0324,0.013523,0.002678,0.000431,0.004701
7069800,0.0324,0.013523,0.002678,0.000431,0.000000
7069900,0.0324,0.013523,0.002678,0.000431,0.000000
7070000,0.0324,0.013523,0.002678,0.000431,0.004701
7070100,0.0324,0.013523,0.002678,0.000431,0.000000
7070200,0.0324,0.013523,0.002678,0.000431,0.000000
7070300,0.0324,0.013523,0.002678,0.000431,0.000000
7070400,0.0324,0.013523,0.002678,0.000431,0.004701
7070500,0.0324,0.013523,0.002678,0.000431,0.000000
7070600,0.0324,0.013523,0.002678,0.000431,0.000000
7070700,0.0324,0.013523,0.002678,0.000431,0.004701
7070800,0.0324,0.013523,0.002678,0.000431,0.000000
7070900,0.0324,0.013523,0.002678,0.000431,0.000000
7071000,0.0324,0.013523,0.002678,0.000431,0.004701
7071100,0.0324,0.013523,0.002678,0.000431,0.000000
7071200,0.0324,0.013523,0.002678,0.000431,0.000000
7071300,0.0324,0.013523,0.002678,0.000431,0.004701
7071400,0.0324,0.013523,0.002678,0.000431,0.000000
7071500,0.0324,0.013523,0.002678,0.000431,0.000000
7071600,0.0324,0.013523,0.002678,0.000431,0.004701
7071700,0.0324,0.013523,0.002678,0.000431,0.000000
7071800,0.0324,0.013523,0.002678,0.000431,0.000000
7071900,0.0324,0.013523,0.002678,0.000431,0.004701
7072000,0.0324,0.013523,0.002678,0.000431,0.000000
7072100,0.0324,0.013523,0.002678,0.000431,0.000000
7072200,0.0324,0.013523,0.002678,0.000431,0.000000
7072300,0.0324,0.013523,0.002678,0.000431,0.014103
7072400,0.0324,0.013523,0.002678,0.000431,0.000000
7072500,0.0324,0.013523,0.002678,0.000431,0.014103
7072600,0.0324,0.013523,0.002678,0.000431,0.000000
7072700,0.0324,0.013523,0.002678,0.000431,0.014103
7072800,0.0324,0.013523,0.002678,0.000431,0.000000
7072900,0.0324,0.013523,0.002678,0.000431,0.014103
7073000,0.0324,0.013523,0.002678,0.000431,0.011753
7073100,0.0324,0.013523,0.002678,0.000431,0.002351
7073200,0.0324,0.013523,0.002678,0.000431,0.012928
7073300,0.0324,0.013523,0.002678,0.000431,0.001175
7073400,0.0324,0.013523,0.002678,0.000431,0.014103
7073500,0.0324,0.013523,0.002678,0.000431,0.000000
7073600,0.0324,0.013523,0.002678,0.000431,0.014103
7073700,0.0324,0.013523,0.002678,0.000431,0.000000
7073800,0.0324,0.013523,0.002678,0.000431,0.014103
7073900,0.0324,0.013523,0.002678,0.000431,0.000000
7074000,0.0324,0.013523,0.002678,0.000431,0.014103
7074100,0.0324,0.013523,0.002678,0.000431,0.000000
7074200,0.0324,0.013523,0.002678,0.000431,0.014103
7074300,0.0324,0.013523,0.002678,0.000431,0.000000
7074400,0.0324,0.013523,0.002678,0.000431,0.014103
7074500,0.0324,0.013523,0.002678,0.000431,0.014103
7074600,0.0324,0.013523,0.002678,0.000431,0.000000
7074700,0.0324,0.013523,0.002678,0.000431,0.014103
7074800,0.0324,0.013523,0.002678,0.000431,0.000000
7074900,0.0324,0.013523,0.002678,0.000431,0.014103
7075000,0.0324,0.013523,0.002678,0.000431,0.000000
7075100,0.0324,0.013523,0.002678,0.000431,0.014103
7075200,0.0324,0.013523,0.002678,0.000431,0.000000
7075300,0.0324,0.013523,0.002678,0.000431,0.014103
7075400,0.0324,0.013523,0.002678,0.000431,0.000000
7075500,0.0324,0.013523,0.002678,0.000431,0.014103
7075600,0.0324,0.013523,0.002678,0.000431,0.014103
7075700,0.0324,0.013523,0.002678,0.000431,0.000000
7075800,0.0324,0.013523,0.002678,0.000431,0.014103
7075900,0.0324,0.013523,0.002678,0.000431,0.000000
7076000,0.0324,0.013523,0.002678,0.000431,0.009402
7076100,0.0324,0.013523,0.002678,0.000431,0.000000
