Cycle,Area(mm^2),PeakDynamic(W),SubthresholdLeakage(W),GateLeakage(W),RunTimeDynamic(W)
100,0.0324,0.013523,0.002678,0.000431,0.001175
200,0.0324,0.013523,0.002678,0.000431,0.000000
300,0.0324,0.013523,0.002678,0.000431,0.000000
400,0.0324,0.013523,0.002678,0.000431,0.000000
500,0.0324,0.013523,0.002678,0.000431,0.000000
600,0.0324,0.013523,0.002678,0.000431,0.000000
700,0.0324,0.013523,0.002678,0.000431,0.000000
800,0.0324,0.013523,0.002678,0.000431,0.000000
900,0.0324,0.013523,0.002678,0.000431,0.000000
1000,0.0324,0.013523,0.002678,0.000431,0.000000
1100,0.0324,0.013523,0.002678,0.000431,0.000000
1200,0.0324,0.013523,0.002678,0.000431,0.000000
1300,0.0324,0.013523,0.002678,0.000431,0.000000
1400,0.0324,0.013523,0.002678,0.000431,0.000000
1500,0.0324,0.013523,0.002678,0.000431,0.000000
1600,0.0324,0.013523,0.002678,0.000431,0.000000
1700,0.0324,0.013523,0.002678,0.000431,0.000000
1800,0.0324,0.013523,0.002678,0.000431,0.000000
1900,0.0324,0.013523,0.002678,0.000431,0.000000
2000,0.0324,0.013523,0.002678,0.000431,0.000000
2100,0.0324,0.013523,0.002678,0.000431,0.000000
2200,0.0324,0.013523,0.002678,0.000431,0.000000
2300,0.0324,0.013523,0.002678,0.000431,0.000000
2400,0.0324,0.013523,0.002678,0.000431,0.000000
2500,0.0324,0.013523,0.002678,0.000431,0.000000
2600,0.0324,0.013523,0.002678,0.000431,0.000000
2700,0.0324,0.013523,0.002678,0.000431,0.000000
2800,0.0324,0.013523,0.002678,0.000431,0.000000
2900,0.0324,0.013523,0.002678,0.000431,0.000000
3000,0.0324,0.013523,0.002678,0.000431,0.000000
3100,0.0324,0.013523,0.002678,0.000431,0.000000
3200,0.0324,0.013523,0.002678,0.000431,0.000000
3300,0.0324,0.013523,0.002678,0.000431,0.000000
3400,0.0324,0.013523,0.002678,0.000431,0.000000
3500,0.0324,0.013523,0.002678,0.000431,0.000000
3600,0.0324,0.013523,0.002678,0.000431,0.000000
3700,0.0324,0.013523,0.002678,0.000431,0.000000
3800,0.0324,0.013523,0.002678,0.000431,0.000000
3900,0.0324,0.013523,0.002678,0.000431,0.000000
4000,0.0324,0.013523,0.002678,0.000431,0.000000
4100,0.0324,0.013523,0.002678,0.000431,0.000000
4200,0.0324,0.013523,0.002678,0.000431,0.000000
4300,0.0324,0.013523,0.002678,0.000431,0.000000
4400,0.0324,0.013523,0.002678,0.000431,0.000000
4500,0.0324,0.013523,0.002678,0.000431,0.000000
4600,0.0324,0.013523,0.002678,0.000431,0.000000
4700,0.0324,0.013523,0.002678,0.000431,0.000000
4800,0.0324,0.013523,0.002678,0.000431,0.000000
4900,0.0324,0.013523,0.002678,0.000431,0.000000
5000,0.0324,0.013523,0.002678,0.000431,0.000000
5100,0.0324,0.013523,0.002678,0.000431,0.000000
5200,0.0324,0.013523,0.002678,0.000431,0.035258
5300,0.0324,0.013523,0.002678,0.000431,0.000000
5400,0.0324,0.013523,0.002678,0.000431,0.014103
5500,0.0324,0.013523,0.002678,0.000431,1.029547
5600,0.0324,0.013523,0.002678,0.000431,3.391863
5700,0.0324,0.013523,0.002678,0.000431,0.112827
5800,0.0324,0.013523,0.002678,0.000431,0.048187
5900,0.0324,0.013523,0.002678,0.000431,1.385657
6000,0.0324,0.013523,0.002678,0.000431,2.007381
6100,0.0324,0.013523,0.002678,0.000431,2.116683
6200,0.0324,0.013523,0.002678,0.000431,2.562114
6300,0.0324,0.013523,0.002678,0.000431,2.148415
6400,0.0324,0.013523,0.002678,0.000431,3.076888
6500,0.0324,0.013523,0.002678,0.000431,1.854595
6600,0.0324,0.013523,0.002678,0.000431,1.224644
6700,0.0324,0.013523,0.002678,0.000431,1.580754
6800,0.0324,0.013523,0.002678,0.000431,2.362316
6900,0.0324,0.013523,0.002678,0.000431,2.106105
7000,0.0324,0.013523,0.002678,0.000431,2.087301
7100,0.0324,0.013523,0.002678,0.000431,1.988577
7200,0.0324,0.013523,0.002678,0.000431,2.202478
7300,0.0324,0.013523,0.002678,0.000431,2.924101
7400,0.0324,0.013523,0.002678,0.000431,2.720777
7500,0.0324,0.013523,0.002678,0.000431,1.965071
7600,0.0324,0.013523,0.002678,0.000431,2.243613
7700,0.0324,0.013523,0.002678,0.000431,2.379946
7800,0.0324,0.013523,0.002678,0.000431,2.160168
7900,0.0324,0.013523,0.002678,0.000431,2.370543
8000,0.0324,0.013523,0.002678,0.000431,2.370543
8100,0.0324,0.013523,0.002678,0.000431,2.076723
8200,0.0324,0.013523,0.002678,0.000431,1.936864
8300,0.0324,0.013523,0.002678,0.000431,2.609126
8400,0.0324,0.013523,0.002678,0.000431,2.660838
8500,0.0324,0.013523,0.002678,0.000431,2.216582
8600,0.0324,0.013523,0.002678,0.000431,2.410503
8700,0.0324,0.013523,0.002678,0.000431,2.418730
8800,0.0324,0.013523,0.002678,0.000431,2.198952
8900,0.0324,0.013523,0.002678,0.000431,1.775851
9000,0.0324,0.013523,0.002678,0.000431,1.812285
9100,0.0324,0.013523,0.002678,0.000431,1.976824
9200,0.0324,0.013523,0.002678,0.000431,1.558424
9300,0.0324,0.013523,0.002678,0.000431,0.814470
9400,0.0324,0.013523,0.002678,0.000431,0.656983
