Cycle,Area(mm^2),PeakDynamic(W),SubthresholdLeakage(W),GateLeakage(W),RunTimeDynamic(W)
8000000,0.0324,0.013523,0.002678,0.000431,0.002821
8001000,0.0324,0.013523,0.002678,0.000431,0.002468
8002000,0.0324,0.013523,0.002678,0.000431,0.002586
8003000,0.0324,0.013523,0.002678,0.000431,0.002703
8004000,0.0324,0.013523,0.002678,0.000431,0.002468
8005000,0.0324,0.013523,0.002678,0.000431,0.002821
8006000,0.0324,0.013523,0.002678,0.000431,0.002351
8007000,0.0324,0.013523,0.002678,0.000431,0.002586
8008000,0.0324,0.013523,0.002678,0.000431,0.002938
8009000,0.0324,0.013523,0.002678,0.000431,0.002821
8010000,0.0324,0.013523,0.002678,0.000431,0.002468
8011000,0.0324,0.013523,0.002678,0.000431,0.002586
8012000,0.0324,0.013523,0.002678,0.000431,0.002586
8013000,0.0324,0.013523,0.002678,0.000431,0.002703
8014000,0.0324,0.013523,0.002678,0.000431,0.002116
8015000,0.0324,0.013523,0.002678,0.000431,0.002586
8016000,0.0324,0.013523,0.002678,0.000431,0.002703
8017000,0.0324,0.013523,0.002678,0.000431,0.002468
8018000,0.0324,0.013523,0.002678,0.000431,0.002703
8019000,0.0324,0.013523,0.002678,0.000431,0.002821
8020000,0.0324,0.013523,0.002678,0.000431,0.002821
8021000,0.0324,0.013523,0.002678,0.000431,0.002586
8022000,0.0324,0.013523,0.002678,0.000431,0.002468
8023000,0.0324,0.013523,0.002678,0.000431,0.002703
8024000,0.0324,0.013523,0.002678,0.000431,0.002468
8025000,0.0324,0.013523,0.002678,0.000431,0.002233
8026000,0.0324,0.013523,0.002678,0.000431,0.002468
8027000,0.0324,0.013523,0.002678,0.000431,0.002586
8028000,0.0324,0.013523,0.002678,0.000431,0.002233
8029000,0.0324,0.013523,0.002678,0.000431,0.002233
8030000,0.0324,0.013523,0.002678,0.000431,0.002233
8031000,0.0324,0.013523,0.002678,0.000431,0.002468
8032000,0.0324,0.013523,0.002678,0.000431,0.002116
8033000,0.0324,0.013523,0.002678,0.000431,0.002351
8034000,0.0324,0.013523,0.002678,0.000431,0.002116
8035000,0.0324,0.013523,0.002678,0.000431,0.002703
8036000,0.0324,0.013523,0.002678,0.000431,0.002468
8037000,0.0324,0.013523,0.002678,0.000431,0.002586
8038000,0.0324,0.013523,0.002678,0.000431,0.002703
8039000,0.0324,0.013523,0.002678,0.000431,0.002468
8040000,0.0324,0.013523,0.002678,0.000431,0.002468
8041000,0.0324,0.013523,0.002678,0.000431,0.002468
8042000,0.0324,0.013523,0.002678,0.000431,0.002821
8043000,0.0324,0.013523,0.002678,0.000431,0.002703
8044000,0.0324,0.013523,0.002678,0.000431,0.002233
8045000,0.0324,0.013523,0.002678,0.000431,0.002586
8046000,0.0324,0.013523,0.002678,0.000431,0.002351
8047000,0.0324,0.013523,0.002678,0.000431,0.002821
8048000,0.0324,0.013523,0.002678,0.000431,0.002586
8049000,0.0324,0.013523,0.002678,0.000431,0.002351
8050000,0.0324,0.013523,0.002678,0.000431,0.002468
8051000,0.0324,0.013523,0.002678,0.000431,0.002468
8052000,0.0324,0.013523,0.002678,0.000431,0.002233
8053000,0.0324,0.013523,0.002678,0.000431,0.002351
8054000,0.0324,0.013523,0.002678,0.000431,0.002821
8055000,0.0324,0.013523,0.002678,0.000431,0.002586
8056000,0.0324,0.013523,0.002678,0.000431,0.002468
8057000,0.0324,0.013523,0.002678,0.000431,0.002468
8058000,0.0324,0.013523,0.002678,0.000431,0.002468
8059000,0.0324,0.013523,0.002678,0.000431,0.002116
8060000,0.0324,0.013523,0.002678,0.000431,0.002351
8061000,0.0324,0.013523,0.002678,0.000431,0.002586
8062000,0.0324,0.013523,0.002678,0.000431,0.002821
8063000,0.0324,0.013523,0.002678,0.000431,0.002821
8064000,0.0324,0.013523,0.002678,0.000431,0.002468
8065000,0.0324,0.013523,0.002678,0.000431,0.002351
8066000,0.0324,0.013523,0.002678,0.000431,0.002468
8067000,0.0324,0.013523,0.002678,0.000431,0.002468
8068000,0.0324,0.013523,0.002678,0.000431,0.002703
8069000,0.0324,0.013523,0.002678,0.000431,0.002351
8070000,0.0324,0.013523,0.002678,0.000431,0.002233
8071000,0.0324,0.013523,0.002678,0.000431,0.002351
8072000,0.0324,0.013523,0.002678,0.000431,0.002351
8073000,0.0324,0.013523,0.002678,0.000431,0.002468
8074000,0.0324,0.013523,0.002678,0.000431,0.002233
8075000,0.0324,0.013523,0.002678,0.000431,0.002703
8076000,0.0324,0.013523,0.002678,0.000431,0.002821
8077000,0.0324,0.013523,0.002678,0.000431,0.002351
8078000,0.0324,0.013523,0.002678,0.000431,0.002233
8079000,0.0324,0.013523,0.002678,0.000431,0.001998
8080000,0.0324,0.013523,0.002678,0.000431,0.002821
8081000,0.0324,0.013523,0.002678,0.000431,0.002586
8082000,0.0324,0.013523,0.002678,0.000431,0.002938
8083000,0.0324,0.013523,0.002678,0.000431,0.002703
8084000,0.0324,0.013523,0.002678,0.000431,0.002586
8085000,0.0324,0.013523,0.002678,0.000431,0.003173
8086000,0.0324,0.013523,0.002678,0.000431,0.002586
8087000,0.0324,0.013523,0.002678,0.000431,0.002703
8088000,0.0324,0.013523,0.002678,0.000431,0.002703
8089000,0.0324,0.013523,0.002678,0.000431,0.002586
8090000,0.0324,0.013523,0.002678,0.000431,0.002938
8091000,0.0324,0.013523,0.002678,0.000431,0.002821
8092000,0.0324,0.013523,0.002678,0.000431,0.002703
8093000,0.0324,0.013523,0.002678,0.000431,0.002468
8094000,0.0324,0.013523,0.002678,0.000431,0.002586
8095000,0.0324,0.013523,0.002678,0.000431,0.002351
8096000,0.0324,0.013523,0.002678,0.000431,0.002586
8097000,0.0324,0.013523,0.002678,0.000431,0.002468
8098000,0.0324,0.013523,0.002678,0.000431,0.002116
8099000,0.0324,0.013523,0.002678,0.000431,0.002468
8100000,0.0324,0.013523,0.002678,0.000431,0.002116
8101000,0.0324,0.013523,0.002678,0.000431,0.002821
8102000,0.0324,0.013523,0.002678,0.000431,0.002116
8103000,0.0324,0.013523,0.002678,0.000431,0.002938
8104000,0.0324,0.013523,0.002678,0.000431,0.002468
8105000,0.0324,0.013523,0.002678,0.000431,0.002586
8106000,0.0324,0.013523,0.002678,0.000431,0.002351
8107000,0.0324,0.013523,0.002678,0.000431,0.002468
8108000,0.0324,0.013523,0.002678,0.000431,0.002703
8109000,0.0324,0.013523,0.002678,0.000431,0.002586
8110000,0.0324,0.013523,0.002678,0.000431,0.002351
8111000,0.0324,0.013523,0.002678,0.000431,0.002586
8112000,0.0324,0.013523,0.002678,0.000431,0.002351
8113000,0.0324,0.013523,0.002678,0.000431,0.002351
8114000,0.0324,0.013523,0.002678,0.000431,0.002351
8115000,0.0324,0.013523,0.002678,0.000431,0.002586
8116000,0.0324,0.013523,0.002678,0.000431,0.002821
8117000,0.0324,0.013523,0.002678,0.000431,0.001880
8118000,0.0324,0.013523,0.002678,0.000431,0.002703
8119000,0.0324,0.013523,0.002678,0.000431,0.002821
8120000,0.0324,0.013523,0.002678,0.000431,0.002938
8121000,0.0324,0.013523,0.002678,0.000431,0.002703
8122000,0.0324,0.013523,0.002678,0.000431,0.002586
8123000,0.0324,0.013523,0.002678,0.000431,0.002468
8124000,0.0324,0.013523,0.002678,0.000431,0.002821
8125000,0.0324,0.013523,0.002678,0.000431,0.002703
8126000,0.0324,0.013523,0.002678,0.000431,0.002468
8127000,0.0324,0.013523,0.002678,0.000431,0.002586
8128000,0.0324,0.013523,0.002678,0.000431,0.002586
8129000,0.0324,0.013523,0.002678,0.000431,0.002233
8130000,0.0324,0.013523,0.002678,0.000431,0.002821
8131000,0.0324,0.013523,0.002678,0.000431,0.002468
8132000,0.0324,0.013523,0.002678,0.000431,0.002351
8133000,0.0324,0.013523,0.002678,0.000431,0.002468
8134000,0.0324,0.013523,0.002678,0.000431,0.002821
8135000,0.0324,0.013523,0.002678,0.000431,0.002468
8136000,0.0324,0.013523,0.002678,0.000431,0.002703
8137000,0.0324,0.013523,0.002678,0.000431,0.002468
8138000,0.0324,0.013523,0.002678,0.000431,0.002468
8139000,0.0324,0.013523,0.002678,0.000431,0.002821
8140000,0.0324,0.013523,0.002678,0.000431,0.002586
8141000,0.0324,0.013523,0.002678,0.000431,0.002586
8142000,0.0324,0.013523,0.002678,0.000431,0.002821
8143000,0.0324,0.013523,0.002678,0.000431,0.002821
8144000,0.0324,0.013523,0.002678,0.000431,0.002351
8145000,0.0324,0.013523,0.002678,0.000431,0.003056
8146000,0.0324,0.013523,0.002678,0.000431,0.002468
8147000,0.0324,0.013523,0.002678,0.000431,0.003173
8148000,0.0324,0.013523,0.002678,0.000431,0.002351
8149000,0.0324,0.013523,0.002678,0.000431,0.002586
8150000,0.0324,0.013523,0.002678,0.000431,0.002468
8151000,0.0324,0.013523,0.002678,0.000431,0.002586
8152000,0.0324,0.013523,0.002678,0.000431,0.002351
8153000,0.0324,0.013523,0.002678,0.000431,0.002468
8154000,0.0324,0.013523,0.002678,0.000431,0.002233
8155000,0.0324,0.013523,0.002678,0.000431,0.002821
8156000,0.0324,0.013523,0.002678,0.000431,0.002703
8157000,0.0324,0.013523,0.002678,0.000431,0.002116
8158000,0.0324,0.013523,0.002678,0.000431,0.002233
8159000,0.0324,0.013523,0.002678,0.000431,0.002703
8160000,0.0324,0.013523,0.002678,0.000431,0.003056
8161000,0.0324,0.013523,0.002678,0.000431,0.002468
8162000,0.0324,0.013523,0.002678,0.000431,0.002116
8163000,0.0324,0.013523,0.002678,0.000431,0.002821
8164000,0.0324,0.013523,0.002678,0.000431,0.002468
8165000,0.0324,0.013523,0.002678,0.000431,0.002351
8166000,0.0324,0.013523,0.002678,0.000431,0.002938
8167000,0.0324,0.013523,0.002678,0.000431,0.002586
8168000,0.0324,0.013523,0.002678,0.000431,0.002703
8169000,0.0324,0.013523,0.002678,0.000431,0.002586
8170000,0.0324,0.013523,0.002678,0.000431,0.002468
8171000,0.0324,0.013523,0.002678,0.000431,0.002351
8172000,0.0324,0.013523,0.002678,0.000431,0.002938
8173000,0.0324,0.013523,0.002678,0.000431,0.002468
8174000,0.0324,0.013523,0.002678,0.000431,0.002821
8175000,0.0324,0.013523,0.002678,0.000431,0.002468
8176000,0.0324,0.013523,0.002678,0.000431,0.002233
8177000,0.0324,0.013523,0.002678,0.000431,0.002586
8178000,0.0324,0.013523,0.002678,0.000431,0.002468
8179000,0.0324,0.013523,0.002678,0.000431,0.002468
8180000,0.0324,0.013523,0.002678,0.000431,0.002351
8181000,0.0324,0.013523,0.002678,0.000431,0.002703
8182000,0.0324,0.013523,0.002678,0.000431,0.002586
8183000,0.0324,0.013523,0.002678,0.000431,0.002703
8184000,0.0324,0.013523,0.002678,0.000431,0.002233
8185000,0.0324,0.013523,0.002678,0.000431,0.002703
8186000,0.0324,0.013523,0.002678,0.000431,0.002586
8187000,0.0324,0.013523,0.002678,0.000431,0.002233
8188000,0.0324,0.013523,0.002678,0.000431,0.002586
8189000,0.0324,0.013523,0.002678,0.000431,0.002468
8190000,0.0324,0.013523,0.002678,0.000431,0.003173
8191000,0.0324,0.013523,0.002678,0.000431,0.002233
8192000,0.0324,0.013523,0.002678,0.000431,0.002468
8193000,0.0324,0.013523,0.002678,0.000431,0.002116
8194000,0.0324,0.013523,0.002678,0.000431,0.002821
8195000,0.0324,0.013523,0.002678,0.000431,0.002351
8196000,0.0324,0.013523,0.002678,0.000431,0.002468
8197000,0.0324,0.013523,0.002678,0.000431,0.002233
8198000,0.0324,0.013523,0.002678,0.000431,0.002351
8199000,0.0324,0.013523,0.002678,0.000431,0.001998
8200000,0.0324,0.013523,0.002678,0.000431,0.002586
8201000,0.0324,0.013523,0.002678,0.000431,0.002233
8202000,0.0324,0.013523,0.002678,0.000431,0.002586
8203000,0.0324,0.013523,0.002678,0.000431,0.002821
8204000,0.0324,0.013523,0.002678,0.000431,0.002703
8205000,0.0324,0.013523,0.002678,0.000431,0.002586
8206000,0.0324,0.013523,0.002678,0.000431,0.002233
8207000,0.0324,0.013523,0.002678,0.000431,0.002586
8208000,0.0324,0.013523,0.002678,0.000431,0.002586
8209000,0.0324,0.013523,0.002678,0.000431,0.002468
8210000,0.0324,0.013523,0.002678,0.000431,0.002586
8211000,0.0324,0.013523,0.002678,0.000431,0.002586
8212000,0.0324,0.013523,0.002678,0.000431,0.002703
8213000,0.0324,0.013523,0.002678,0.000431,0.002821
8214000,0.0324,0.013523,0.002678,0.000431,0.002351
8215000,0.0324,0.013523,0.002678,0.000431,0.002351
8216000,0.0324,0.013523,0.002678,0.000431,0.002233
8217000,0.0324,0.013523,0.002678,0.000431,0.002116
8218000,0.0324,0.013523,0.002678,0.000431,0.002938
8219000,0.0324,0.013523,0.002678,0.000431,0.001880
8220000,0.0324,0.013523,0.002678,0.000431,0.002821
8221000,0.0324,0.013523,0.002678,0.000431,0.001880
8222000,0.0324,0.013523,0.002678,0.000431,0.002586
8223000,0.0324,0.013523,0.002678,0.000431,0.002586
8224000,0.0324,0.013523,0.002678,0.000431,0.002821
8225000,0.0324,0.013523,0.002678,0.000431,0.002703
8226000,0.0324,0.013523,0.002678,0.000431,0.002821
8227000,0.0324,0.013523,0.002678,0.000431,0.002351
8228000,0.0324,0.013523,0.002678,0.000431,0.002233
8229000,0.0324,0.013523,0.002678,0.000431,0.002703
8230000,0.0324,0.013523,0.002678,0.000431,0.002703
8231000,0.0324,0.013523,0.002678,0.000431,0.002468
8232000,0.0324,0.013523,0.002678,0.000431,0.002586
8233000,0.0324,0.013523,0.002678,0.000431,0.002586
8234000,0.0324,0.013523,0.002678,0.000431,0.002703
8235000,0.0324,0.013523,0.002678,0.000431,0.002586
8236000,0.0324,0.013523,0.002678,0.000431,0.002821
8237000,0.0324,0.013523,0.002678,0.000431,0.002116
8238000,0.0324,0.013523,0.002678,0.000431,0.003056
8239000,0.0324,0.013523,0.002678,0.000431,0.002468
8240000,0.0324,0.013523,0.002678,0.000431,0.002586
8241000,0.0324,0.013523,0.002678,0.000431,0.002938
8242000,0.0324,0.013523,0.002678,0.000431,0.002468
8243000,0.0324,0.013523,0.002678,0.000431,0.002116
8244000,0.0324,0.013523,0.002678,0.000431,0.003056
8245000,0.0324,0.013523,0.002678,0.000431,0.002468
8246000,0.0324,0.013523,0.002678,0.000431,0.002586
8247000,0.0324,0.013523,0.002678,0.000431,0.002586
8248000,0.0324,0.013523,0.002678,0.000431,0.002351
8249000,0.0324,0.013523,0.002678,0.000431,0.002586
8250000,0.0324,0.013523,0.002678,0.000431,0.002468
8251000,0.0324,0.013523,0.002678,0.000431,0.002821
8252000,0.0324,0.013523,0.002678,0.000431,0.003056
8253000,0.0324,0.013523,0.002678,0.000431,0.003056
8254000,0.0324,0.013523,0.002678,0.000431,0.002703
8255000,0.0324,0.013523,0.002678,0.000431,0.002233
8256000,0.0324,0.013523,0.002678,0.000431,0.002821
8257000,0.0324,0.013523,0.002678,0.000431,0.002703
8258000,0.0324,0.013523,0.002678,0.000431,0.003173
8259000,0.0324,0.013523,0.002678,0.000431,0.002703
8260000,0.0324,0.013523,0.002678,0.000431,0.002233
8261000,0.0324,0.013523,0.002678,0.000431,0.002586
8262000,0.0324,0.013523,0.002678,0.000431,0.002703
8263000,0.0324,0.013523,0.002678,0.000431,0.002703
8264000,0.0324,0.013523,0.002678,0.000431,0.002938
8265000,0.0324,0.013523,0.002678,0.000431,0.002468
8266000,0.0324,0.013523,0.002678,0.000431,0.002468
8267000,0.0324,0.013523,0.002678,0.000431,0.002586
8268000,0.0324,0.013523,0.002678,0.000431,0.002468
8269000,0.0324,0.013523,0.002678,0.000431,0.002703
8270000,0.0324,0.013523,0.002678,0.000431,0.002586
8271000,0.0324,0.013523,0.002678,0.000431,0.002703
8272000,0.0324,0.013523,0.002678,0.000431,0.002586
8273000,0.0324,0.013523,0.002678,0.000431,0.002586
8274000,0.0324,0.013523,0.002678,0.000431,0.002233
8275000,0.0324,0.013523,0.002678,0.000431,0.002468
8276000,0.0324,0.013523,0.002678,0.000431,0.002821
8277000,0.0324,0.013523,0.002678,0.000431,0.003056
8278000,0.0324,0.013523,0.002678,0.000431,0.002821
8279000,0.0324,0.013523,0.002678,0.000431,0.002938
8280000,0.0324,0.013523,0.002678,0.000431,0.002938
8281000,0.0324,0.013523,0.002678,0.000431,0.003408
8282000,0.0324,0.013523,0.002678,0.000431,0.002586
8283000,0.0324,0.013523,0.002678,0.000431,0.002703
8284000,0.0324,0.013523,0.002678,0.000431,0.002351
8285000,0.0324,0.013523,0.002678,0.000431,0.002703
8286000,0.0324,0.013523,0.002678,0.000431,0.002586
8287000,0.0324,0.013523,0.002678,0.000431,0.002586
8288000,0.0324,0.013523,0.002678,0.000431,0.003173
8289000,0.0324,0.013523,0.002678,0.000431,0.002586
8290000,0.0324,0.013523,0.002678,0.000431,0.002821
8291000,0.0324,0.013523,0.002678,0.000431,0.003056
8292000,0.0324,0.013523,0.002678,0.000431,0.002703
8293000,0.0324,0.013523,0.002678,0.000431,0.002586
8294000,0.0324,0.013523,0.002678,0.000431,0.002468
8295000,0.0324,0.013523,0.002678,0.000431,0.003173
8296000,0.0324,0.013523,0.002678,0.000431,0.002703
8297000,0.0324,0.013523,0.002678,0.000431,0.002586
8298000,0.0324,0.013523,0.002678,0.000431,0.003173
8299000,0.0324,0.013523,0.002678,0.000431,0.002821
8300000,0.0324,0.013523,0.002678,0.000431,0.002703
8301000,0.0324,0.013523,0.002678,0.000431,0.002703
8302000,0.0324,0.013523,0.002678,0.000431,0.002586
8303000,0.0324,0.013523,0.002678,0.000431,0.003173
8304000,0.0324,0.013523,0.002678,0.000431,0.002703
8305000,0.0324,0.013523,0.002678,0.000431,0.003056
8306000,0.0324,0.013523,0.002678,0.000431,0.002233
8307000,0.0324,0.013523,0.002678,0.000431,0.002233
8308000,0.0324,0.013523,0.002678,0.000431,0.002233
8309000,0.0324,0.013523,0.002678,0.000431,0.002938
8310000,0.0324,0.013523,0.002678,0.000431,0.002938
8311000,0.0324,0.013523,0.002678,0.000431,0.002938
8312000,0.0324,0.013523,0.002678,0.000431,0.002703
8313000,0.0324,0.013523,0.002678,0.000431,0.002821
8314000,0.0324,0.013523,0.002678,0.000431,0.002468
8315000,0.0324,0.013523,0.002678,0.000431,0.002703
8316000,0.0324,0.013523,0.002678,0.000431,0.002703
8317000,0.0324,0.013523,0.002678,0.000431,0.003056
8318000,0.0324,0.013523,0.002678,0.000431,0.002938
8319000,0.0324,0.013523,0.002678,0.000431,0.002938
8320000,0.0324,0.013523,0.002678,0.000431,0.002351
8321000,0.0324,0.013523,0.002678,0.000431,0.002821
8322000,0.0324,0.013523,0.002678,0.000431,0.002703
8323000,0.0324,0.013523,0.002678,0.000431,0.002821
8324000,0.0324,0.013523,0.002678,0.000431,0.002938
8325000,0.0324,0.013523,0.002678,0.000431,0.002821
8326000,0.0324,0.013523,0.002678,0.000431,0.002468
8327000,0.0324,0.013523,0.002678,0.000431,0.002468
8328000,0.0324,0.013523,0.002678,0.000431,0.002468
8329000,0.0324,0.013523,0.002678,0.000431,0.002821
8330000,0.0324,0.013523,0.002678,0.000431,0.002703
8331000,0.0324,0.013523,0.002678,0.000431,0.003056
8332000,0.0324,0.013523,0.002678,0.000431,0.002586
8333000,0.0324,0.013523,0.002678,0.000431,0.002703
8334000,0.0324,0.013523,0.002678,0.000431,0.002821
8335000,0.0324,0.013523,0.002678,0.000431,0.002703
8336000,0.0324,0.013523,0.002678,0.000431,0.002468
8337000,0.0324,0.013523,0.002678,0.000431,0.002468
8338000,0.0324,0.013523,0.002678,0.000431,0.002703
8339000,0.0324,0.013523,0.002678,0.000431,0.003173
8340000,0.0324,0.013523,0.002678,0.000431,0.002703
8341000,0.0324,0.013523,0.002678,0.000431,0.002821
8342000,0.0324,0.013523,0.002678,0.000431,0.002938
8343000,0.0324,0.013523,0.002678,0.000431,0.002586
8344000,0.0324,0.013523,0.002678,0.000431,0.002703
8345000,0.0324,0.013523,0.002678,0.000431,0.002938
8346000,0.0324,0.013523,0.002678,0.000431,0.002233
8347000,0.0324,0.013523,0.002678,0.000431,0.003173
8348000,0.0324,0.013523,0.002678,0.000431,0.003173
8349000,0.0324,0.013523,0.002678,0.000431,0.002468
8350000,0.0324,0.013523,0.002678,0.000431,0.002586
8351000,0.0324,0.013523,0.002678,0.000431,0.002821
8352000,0.0324,0.013523,0.002678,0.000431,0.002938
8353000,0.0324,0.013523,0.002678,0.000431,0.002703
8354000,0.0324,0.013523,0.002678,0.000431,0.002586
8355000,0.0324,0.013523,0.002678,0.000431,0.002233
8356000,0.0324,0.013523,0.002678,0.000431,0.002938
8357000,0.0324,0.013523,0.002678,0.000431,0.002351
8358000,0.0324,0.013523,0.002678,0.000431,0.002468
8359000,0.0324,0.013523,0.002678,0.000431,0.002703
8360000,0.0324,0.013523,0.002678,0.000431,0.002586
8361000,0.0324,0.013523,0.002678,0.000431,0.002586
8362000,0.0324,0.013523,0.002678,0.000431,0.002351
8363000,0.0324,0.013523,0.002678,0.000431,0.002586
8364000,0.0324,0.013523,0.002678,0.000431,0.002938
8365000,0.0324,0.013523,0.002678,0.000431,0.002938
8366000,0.0324,0.013523,0.002678,0.000431,0.002468
8367000,0.0324,0.013523,0.002678,0.000431,0.002468
8368000,0.0324,0.013523,0.002678,0.000431,0.003291
8369000,0.0324,0.013523,0.002678,0.000431,0.002821
8370000,0.0324,0.013523,0.002678,0.000431,0.002703
8371000,0.0324,0.013523,0.002678,0.000431,0.002586
8372000,0.0324,0.013523,0.002678,0.000431,0.002586
8373000,0.0324,0.013523,0.002678,0.000431,0.002351
8374000,0.0324,0.013523,0.002678,0.000431,0.003056
8375000,0.0324,0.013523,0.002678,0.000431,0.002821
8376000,0.0324,0.013523,0.002678,0.000431,0.002703
8377000,0.0324,0.013523,0.002678,0.000431,0.002468
8378000,0.0324,0.013523,0.002678,0.000431,0.002938
8379000,0.0324,0.013523,0.002678,0.000431,0.002821
8380000,0.0324,0.013523,0.002678,0.000431,0.002586
8381000,0.0324,0.013523,0.002678,0.000431,0.002703
8382000,0.0324,0.013523,0.002678,0.000431,0.002938
8383000,0.0324,0.013523,0.002678,0.000431,0.002468
8384000,0.0324,0.013523,0.002678,0.000431,0.002821
8385000,0.0324,0.013523,0.002678,0.000431,0.002586
8386000,0.0324,0.013523,0.002678,0.000431,0.002586
8387000,0.0324,0.013523,0.002678,0.000431,0.002938
8388000,0.0324,0.013523,0.002678,0.000431,0.002938
8389000,0.0324,0.013523,0.002678,0.000431,0.002586
8390000,0.0324,0.013523,0.002678,0.000431,0.002586
8391000,0.0324,0.013523,0.002678,0.000431,0.002351
8392000,0.0324,0.013523,0.002678,0.000431,0.002586
8393000,0.0324,0.013523,0.002678,0.000431,0.002586
8394000,0.0324,0.013523,0.002678,0.000431,0.002468
8395000,0.0324,0.013523,0.002678,0.000431,0.002116
8396000,0.0324,0.013523,0.002678,0.000431,0.002351
8397000,0.0324,0.013523,0.002678,0.000431,0.002351
8398000,0.0324,0.013523,0.002678,0.000431,0.002586
8399000,0.0324,0.013523,0.002678,0.000431,0.002351
8400000,0.0324,0.013523,0.002678,0.000431,0.002586
8401000,0.0324,0.013523,0.002678,0.000431,0.002586
8402000,0.0324,0.013523,0.002678,0.000431,0.002468
8403000,0.0324,0.013523,0.002678,0.000431,0.003056
8404000,0.0324,0.013523,0.002678,0.000431,0.002703
8405000,0.0324,0.013523,0.002678,0.000431,0.002351
8406000,0.0324,0.013523,0.002678,0.000431,0.002586
8407000,0.0324,0.013523,0.002678,0.000431,0.002821
8408000,0.0324,0.013523,0.002678,0.000431,0.002351
8409000,0.0324,0.013523,0.002678,0.000431,0.002703
8410000,0.0324,0.013523,0.002678,0.000431,0.002703
8411000,0.0324,0.013523,0.002678,0.000431,0.002468
8412000,0.0324,0.013523,0.002678,0.000431,0.002703
8413000,0.0324,0.013523,0.002678,0.000431,0.002586
8414000,0.0324,0.013523,0.002678,0.000431,0.002821
8415000,0.0324,0.013523,0.002678,0.000431,0.002821
8416000,0.0324,0.013523,0.002678,0.000431,0.002233
8417000,0.0324,0.013523,0.002678,0.000431,0.002703
8418000,0.0324,0.013523,0.002678,0.000431,0.002821
8419000,0.0324,0.013523,0.002678,0.000431,0.002586
8420000,0.0324,0.013523,0.002678,0.000431,0.002821
8421000,0.0324,0.013523,0.002678,0.000431,0.002351
8422000,0.0324,0.013523,0.002678,0.000431,0.003056
8423000,0.0324,0.013523,0.002678,0.000431,0.002351
8424000,0.0324,0.013523,0.002678,0.000431,0.002703
8425000,0.0324,0.013523,0.002678,0.000431,0.002586
8426000,0.0324,0.013523,0.002678,0.000431,0.002468
8427000,0.0324,0.013523,0.002678,0.000431,0.001998
8428000,0.0324,0.013523,0.002678,0.000431,0.002351
8429000,0.0324,0.013523,0.002678,0.000431,0.002233
8430000,0.0324,0.013523,0.002678,0.000431,0.002821
8431000,0.0324,0.013523,0.002678,0.000431,0.002586
8432000,0.0324,0.013523,0.002678,0.000431,0.002468
8433000,0.0324,0.013523,0.002678,0.000431,0.002586
8434000,0.0324,0.013523,0.002678,0.000431,0.002468
8435000,0.0324,0.013523,0.002678,0.000431,0.002586
8436000,0.0324,0.013523,0.002678,0.000431,0.002468
8437000,0.0324,0.013523,0.002678,0.000431,0.002351
8438000,0.0324,0.013523,0.002678,0.000431,0.002468
8439000,0.0324,0.013523,0.002678,0.000431,0.002703
8440000,0.0324,0.013523,0.002678,0.000431,0.002468
8441000,0.0324,0.013523,0.002678,0.000431,0.002586
8442000,0.0324,0.013523,0.002678,0.000431,0.002351
8443000,0.0324,0.013523,0.002678,0.000431,0.002938
8444000,0.0324,0.013523,0.002678,0.000431,0.003056
8445000,0.0324,0.013523,0.002678,0.000431,0.003056
8446000,0.0324,0.013523,0.002678,0.000431,0.002703
8447000,0.0324,0.013523,0.002678,0.000431,0.002468
8448000,0.0324,0.013523,0.002678,0.000431,0.002468
8449000,0.0324,0.013523,0.002678,0.000431,0.002586
8450000,0.0324,0.013523,0.002678,0.000431,0.002468
8451000,0.0324,0.013523,0.002678,0.000431,0.003056
8452000,0.0324,0.013523,0.002678,0.000431,0.002351
8453000,0.0324,0.013523,0.002678,0.000431,0.002703
8454000,0.0324,0.013523,0.002678,0.000431,0.002116
8455000,0.0324,0.013523,0.002678,0.000431,0.002703
8456000,0.0324,0.013523,0.002678,0.000431,0.002586
8457000,0.0324,0.013523,0.002678,0.000431,0.002468
8458000,0.0324,0.013523,0.002678,0.000431,0.002703
8459000,0.0324,0.013523,0.002678,0.000431,0.002468
8460000,0.0324,0.013523,0.002678,0.000431,0.003056
8461000,0.0324,0.013523,0.002678,0.000431,0.002233
8462000,0.0324,0.013523,0.002678,0.000431,0.002938
8463000,0.0324,0.013523,0.002678,0.000431,0.002468
8464000,0.0324,0.013523,0.002678,0.000431,0.002586
8465000,0.0324,0.013523,0.002678,0.000431,0.002821
8466000,0.0324,0.013523,0.002678,0.000431,0.002586
8467000,0.0324,0.013523,0.002678,0.000431,0.002703
8468000,0.0324,0.013523,0.002678,0.000431,0.002821
8469000,0.0324,0.013523,0.002678,0.000431,0.002703
8470000,0.0324,0.013523,0.002678,0.000431,0.002468
8471000,0.0324,0.013523,0.002678,0.000431,0.002586
8472000,0.0324,0.013523,0.002678,0.000431,0.002468
8473000,0.0324,0.013523,0.002678,0.000431,0.002703
8474000,0.0324,0.013523,0.002678,0.000431,0.002703
8475000,0.0324,0.013523,0.002678,0.000431,0.002821
8476000,0.0324,0.013523,0.002678,0.000431,0.002821
8477000,0.0324,0.013523,0.002678,0.000431,0.002468
8478000,0.0324,0.013523,0.002678,0.000431,0.002938
8479000,0.0324,0.013523,0.002678,0.000431,0.002351
8480000,0.0324,0.013523,0.002678,0.000431,0.002586
8481000,0.0324,0.013523,0.002678,0.000431,0.002586
8482000,0.0324,0.013523,0.002678,0.000431,0.002821
8483000,0.0324,0.013523,0.002678,0.000431,0.002468
8484000,0.0324,0.013523,0.002678,0.000431,0.002233
8485000,0.0324,0.013523,0.002678,0.000431,0.002703
8486000,0.0324,0.013523,0.002678,0.000431,0.002703
8487000,0.0324,0.013523,0.002678,0.000431,0.002703
8488000,0.0324,0.013523,0.002678,0.000431,0.002233
8489000,0.0324,0.013523,0.002678,0.000431,0.002351
8490000,0.0324,0.013523,0.002678,0.000431,0.002586
8491000,0.0324,0.013523,0.002678,0.000431,0.002586
8492000,0.0324,0.013523,0.002678,0.000431,0.002116
8493000,0.0324,0.013523,0.002678,0.000431,0.002233
8494000,0.0324,0.013523,0.002678,0.000431,0.002468
8495000,0.0324,0.013523,0.002678,0.000431,0.002468
8496000,0.0324,0.013523,0.002678,0.000431,0.002233
8497000,0.0324,0.013523,0.002678,0.000431,0.002938
8498000,0.0324,0.013523,0.002678,0.000431,0.002586
8499000,0.0324,0.013523,0.002678,0.000431,0.002233
8500000,0.0324,0.013523,0.002678,0.000431,0.002586
8501000,0.0324,0.013523,0.002678,0.000431,0.002468
8502000,0.0324,0.013523,0.002678,0.000431,0.002703
8503000,0.0324,0.013523,0.002678,0.000431,0.002938
8504000,0.0324,0.013523,0.002678,0.000431,0.002703
8505000,0.0324,0.013523,0.002678,0.000431,0.002351
8506000,0.0324,0.013523,0.002678,0.000431,0.002586
8507000,0.0324,0.013523,0.002678,0.000431,0.002233
8508000,0.0324,0.013523,0.002678,0.000431,0.002586
8509000,0.0324,0.013523,0.002678,0.000431,0.002703
8510000,0.0324,0.013523,0.002678,0.000431,0.002233
8511000,0.0324,0.013523,0.002678,0.000431,0.002821
8512000,0.0324,0.013523,0.002678,0.000431,0.002586
8513000,0.0324,0.013523,0.002678,0.000431,0.002468
8514000,0.0324,0.013523,0.002678,0.000431,0.002938
8515000,0.0324,0.013523,0.002678,0.000431,0.002468
8516000,0.0324,0.013523,0.002678,0.000431,0.002468
8517000,0.0324,0.013523,0.002678,0.000431,0.003056
8518000,0.0324,0.013523,0.002678,0.000431,0.001998
8519000,0.0324,0.013523,0.002678,0.000431,0.001763
8520000,0.0324,0.013523,0.002678,0.000431,0.002703
8521000,0.0324,0.013523,0.002678,0.000431,0.002586
8522000,0.0324,0.013523,0.002678,0.000431,0.002351
8523000,0.0324,0.013523,0.002678,0.000431,0.002703
8524000,0.0324,0.013523,0.002678,0.000431,0.002116
8525000,0.0324,0.013523,0.002678,0.000431,0.002351
8526000,0.0324,0.013523,0.002678,0.000431,0.002821
8527000,0.0324,0.013523,0.002678,0.000431,0.002938
8528000,0.0324,0.013523,0.002678,0.000431,0.002351
8529000,0.0324,0.013523,0.002678,0.000431,0.002703
8530000,0.0324,0.013523,0.002678,0.000431,0.002821
8531000,0.0324,0.013523,0.002678,0.000431,0.002586
8532000,0.0324,0.013523,0.002678,0.000431,0.002703
8533000,0.0324,0.013523,0.002678,0.000431,0.002938
8534000,0.0324,0.013523,0.002678,0.000431,0.002586
8535000,0.0324,0.013523,0.002678,0.000431,0.002468
8536000,0.0324,0.013523,0.002678,0.000431,0.003173
8537000,0.0324,0.013523,0.002678,0.000431,0.002703
8538000,0.0324,0.013523,0.002678,0.000431,0.002938
8539000,0.0324,0.013523,0.002678,0.000431,0.002468
8540000,0.0324,0.013523,0.002678,0.000431,0.002821
8541000,0.0324,0.013523,0.002678,0.000431,0.002703
8542000,0.0324,0.013523,0.002678,0.000431,0.002468
8543000,0.0324,0.013523,0.002678,0.000431,0.002703
8544000,0.0324,0.013523,0.002678,0.000431,0.002821
8545000,0.0324,0.013523,0.002678,0.000431,0.002586
8546000,0.0324,0.013523,0.002678,0.000431,0.002821
8547000,0.0324,0.013523,0.002678,0.000431,0.002586
8548000,0.0324,0.013523,0.002678,0.000431,0.002116
8549000,0.0324,0.013523,0.002678,0.000431,0.002586
8550000,0.0324,0.013523,0.002678,0.000431,0.002586
8551000,0.0324,0.013523,0.002678,0.000431,0.002821
8552000,0.0324,0.013523,0.002678,0.000431,0.002703
8553000,0.0324,0.013523,0.002678,0.000431,0.001880
8554000,0.0324,0.013523,0.002678,0.000431,0.002821
8555000,0.0324,0.013523,0.002678,0.000431,0.002586
8556000,0.0324,0.013523,0.002678,0.000431,0.002351
8557000,0.0324,0.013523,0.002678,0.000431,0.002938
8558000,0.0324,0.013523,0.002678,0.000431,0.002703
8559000,0.0324,0.013523,0.002678,0.000431,0.002233
8560000,0.0324,0.013523,0.002678,0.000431,0.002468
8561000,0.0324,0.013523,0.002678,0.000431,0.002586
8562000,0.0324,0.013523,0.002678,0.000431,0.002351
8563000,0.0324,0.013523,0.002678,0.000431,0.002703
8564000,0.0324,0.013523,0.002678,0.000431,0.002586
8565000,0.0324,0.013523,0.002678,0.000431,0.002703
8566000,0.0324,0.013523,0.002678,0.000431,0.002468
8567000,0.0324,0.013523,0.002678,0.000431,0.002938
8568000,0.0324,0.013523,0.002678,0.000431,0.002586
8569000,0.0324,0.013523,0.002678,0.000431,0.002821
8570000,0.0324,0.013523,0.002678,0.000431,0.002703
8571000,0.0324,0.013523,0.002678,0.000431,0.002703
8572000,0.0324,0.013523,0.002678,0.000431,0.002703
8573000,0.0324,0.013523,0.002678,0.000431,0.002703
8574000,0.0324,0.013523,0.002678,0.000431,0.002821
8575000,0.0324,0.013523,0.002678,0.000431,0.002821
8576000,0.0324,0.013523,0.002678,0.000431,0.002586
8577000,0.0324,0.013523,0.002678,0.000431,0.002938
8578000,0.0324,0.013523,0.002678,0.000431,0.002351
8579000,0.0324,0.013523,0.002678,0.000431,0.003173
8580000,0.0324,0.013523,0.002678,0.000431,0.002821
8581000,0.0324,0.013523,0.002678,0.000431,0.003056
8582000,0.0324,0.013523,0.002678,0.000431,0.002821
8583000,0.0324,0.013523,0.002678,0.000431,0.002351
8584000,0.0324,0.013523,0.002678,0.000431,0.002821
8585000,0.0324,0.013523,0.002678,0.000431,0.002468
8586000,0.0324,0.013523,0.002678,0.000431,0.002468
8587000,0.0324,0.013523,0.002678,0.000431,0.002116
8588000,0.0324,0.013523,0.002678,0.000431,0.002468
8589000,0.0324,0.013523,0.002678,0.000431,0.002233
8590000,0.0324,0.013523,0.002678,0.000431,0.002586
8591000,0.0324,0.013523,0.002678,0.000431,0.002703
8592000,0.0324,0.013523,0.002678,0.000431,0.002586
8593000,0.0324,0.013523,0.002678,0.000431,0.002586
8594000,0.0324,0.013523,0.002678,0.000431,0.002233
8595000,0.0324,0.013523,0.002678,0.000431,0.002468
8596000,0.0324,0.013523,0.002678,0.000431,0.002938
8597000,0.0324,0.013523,0.002678,0.000431,0.002586
8598000,0.0324,0.013523,0.002678,0.000431,0.002351
8599000,0.0324,0.013523,0.002678,0.000431,0.002233
8600000,0.0324,0.013523,0.002678,0.000431,0.002703
8601000,0.0324,0.013523,0.002678,0.000431,0.002586
8602000,0.0324,0.013523,0.002678,0.000431,0.002233
8603000,0.0324,0.013523,0.002678,0.000431,0.002468
8604000,0.0324,0.013523,0.002678,0.000431,0.002468
8605000,0.0324,0.013523,0.002678,0.000431,0.002938
8606000,0.0324,0.013523,0.002678,0.000431,0.002586
8607000,0.0324,0.013523,0.002678,0.000431,0.002468
8608000,0.0324,0.013523,0.002678,0.000431,0.003056
8609000,0.0324,0.013523,0.002678,0.000431,0.002586
8610000,0.0324,0.013523,0.002678,0.000431,0.002586
8611000,0.0324,0.013523,0.002678,0.000431,0.002703
8612000,0.0324,0.013523,0.002678,0.000431,0.002938
8613000,0.0324,0.013523,0.002678,0.000431,0.002116
8614000,0.0324,0.013523,0.002678,0.000431,0.002351
8615000,0.0324,0.013523,0.002678,0.000431,0.002821
8616000,0.0324,0.013523,0.002678,0.000431,0.002586
8617000,0.0324,0.013523,0.002678,0.000431,0.002586
8618000,0.0324,0.013523,0.002678,0.000431,0.002468
8619000,0.0324,0.013523,0.002678,0.000431,0.002938
8620000,0.0324,0.013523,0.002678,0.000431,0.002233
8621000,0.0324,0.013523,0.002678,0.000431,0.002233
8622000,0.0324,0.013523,0.002678,0.000431,0.002351
8623000,0.0324,0.013523,0.002678,0.000431,0.002468
8624000,0.0324,0.013523,0.002678,0.000431,0.002703
8625000,0.0324,0.013523,0.002678,0.000431,0.001998
8626000,0.0324,0.013523,0.002678,0.000431,0.002821
8627000,0.0324,0.013523,0.002678,0.000431,0.002586
8628000,0.0324,0.013523,0.002678,0.000431,0.002938
8629000,0.0324,0.013523,0.002678,0.000431,0.002351
8630000,0.0324,0.013523,0.002678,0.000431,0.002586
8631000,0.0324,0.013523,0.002678,0.000431,0.002468
8632000,0.0324,0.013523,0.002678,0.000431,0.002233
8633000,0.0324,0.013523,0.002678,0.000431,0.002821
8634000,0.0324,0.013523,0.002678,0.000431,0.002351
8635000,0.0324,0.013523,0.002678,0.000431,0.003056
8636000,0.0324,0.013523,0.002678,0.000431,0.002468
8637000,0.0324,0.013523,0.002678,0.000431,0.002586
8638000,0.0324,0.013523,0.002678,0.000431,0.002586
8639000,0.0324,0.013523,0.002678,0.000431,0.002821
8640000,0.0324,0.013523,0.002678,0.000431,0.002233
8641000,0.0324,0.013523,0.002678,0.000431,0.002703
8642000,0.0324,0.013523,0.002678,0.000431,0.002351
8643000,0.0324,0.013523,0.002678,0.000431,0.002586
8644000,0.0324,0.013523,0.002678,0.000431,0.002351
8645000,0.0324,0.013523,0.002678,0.000431,0.002586
8646000,0.0324,0.013523,0.002678,0.000431,0.002938
8647000,0.0324,0.013523,0.002678,0.000431,0.002703
8648000,0.0324,0.013523,0.002678,0.000431,0.003056
8649000,0.0324,0.013523,0.002678,0.000431,0.002233
8650000,0.0324,0.013523,0.002678,0.000431,0.002233
8651000,0.0324,0.013523,0.002678,0.000431,0.002703
8652000,0.0324,0.013523,0.002678,0.000431,0.002351
8653000,0.0324,0.013523,0.002678,0.000431,0.002233
8654000,0.0324,0.013523,0.002678,0.000431,0.002351
8655000,0.0324,0.013523,0.002678,0.000431,0.002586
8656000,0.0324,0.013523,0.002678,0.000431,0.002351
8657000,0.0324,0.013523,0.002678,0.000431,0.002821
8658000,0.0324,0.013523,0.002678,0.000431,0.002468
8659000,0.0324,0.013523,0.002678,0.000431,0.002116
8660000,0.0324,0.013523,0.002678,0.000431,0.002703
8661000,0.0324,0.013523,0.002678,0.000431,0.002351
8662000,0.0324,0.013523,0.002678,0.000431,0.002586
8663000,0.0324,0.013523,0.002678,0.000431,0.002938
8664000,0.0324,0.013523,0.002678,0.000431,0.002703
8665000,0.0324,0.013523,0.002678,0.000431,0.002586
8666000,0.0324,0.013523,0.002678,0.000431,0.002586
8667000,0.0324,0.013523,0.002678,0.000431,0.002351
8668000,0.0324,0.013523,0.002678,0.000431,0.002468
8669000,0.0324,0.013523,0.002678,0.000431,0.002233
8670000,0.0324,0.013523,0.002678,0.000431,0.002351
8671000,0.0324,0.013523,0.002678,0.000431,0.002468
8672000,0.0324,0.013523,0.002678,0.000431,0.002233
8673000,0.0324,0.013523,0.002678,0.000431,0.002233
8674000,0.0324,0.013523,0.002678,0.000431,0.002468
8675000,0.0324,0.013523,0.002678,0.000431,0.002468
8676000,0.0324,0.013523,0.002678,0.000431,0.002468
8677000,0.0324,0.013523,0.002678,0.000431,0.002586
8678000,0.0324,0.013523,0.002678,0.000431,0.002468
8679000,0.0324,0.013523,0.002678,0.000431,0.002233
8680000,0.0324,0.013523,0.002678,0.000431,0.002468
8681000,0.0324,0.013523,0.002678,0.000431,0.002586
8682000,0.0324,0.013523,0.002678,0.000431,0.001645
8683000,0.0324,0.013523,0.002678,0.000431,0.001175
8684000,0.0324,0.013523,0.002678,0.000431,0.001645
8685000,0.0324,0.013523,0.002678,0.000431,0.001410
8686000,0.0324,0.013523,0.002678,0.000431,0.001528
8687000,0.0324,0.013523,0.002678,0.000431,0.001763
8688000,0.0324,0.013523,0.002678,0.000431,0.001645
8689000,0.0324,0.013523,0.002678,0.000431,0.001293
8690000,0.0324,0.013523,0.002678,0.000431,0.001528
8691000,0.0324,0.013523,0.002678,0.000431,0.001645
8692000,0.0324,0.013523,0.002678,0.000431,0.001528
8693000,0.0324,0.013523,0.002678,0.000431,0.001645
8694000,0.0324,0.013523,0.002678,0.000431,0.001645
8695000,0.0324,0.013523,0.002678,0.000431,0.001763
8696000,0.0324,0.013523,0.002678,0.000431,0.001528
8697000,0.0324,0.013523,0.002678,0.000431,0.001763
8698000,0.0324,0.013523,0.002678,0.000431,0.001528
8699000,0.0324,0.013523,0.002678,0.000431,0.001880
8700000,0.0324,0.013523,0.002678,0.000431,0.001645
8701000,0.0324,0.013523,0.002678,0.000431,0.001763
8702000,0.0324,0.013523,0.002678,0.000431,0.001645
8703000,0.0324,0.013523,0.002678,0.000431,0.001410
8704000,0.0324,0.013523,0.002678,0.000431,0.001998
8705000,0.0324,0.013523,0.002678,0.000431,0.001528
8706000,0.0324,0.013523,0.002678,0.000431,0.001293
8707000,0.0324,0.013523,0.002678,0.000431,0.001880
8708000,0.0324,0.013523,0.002678,0.000431,0.001763
8709000,0.0324,0.013523,0.002678,0.000431,0.001763
8710000,0.0324,0.013523,0.002678,0.000431,0.001880
8711000,0.0324,0.013523,0.002678,0.000431,0.001175
8712000,0.0324,0.013523,0.002678,0.000431,0.001645
8713000,0.0324,0.013523,0.002678,0.000431,0.001528
8714000,0.0324,0.013523,0.002678,0.000431,0.001880
8715000,0.0324,0.013523,0.002678,0.000431,0.001763
8716000,0.0324,0.013523,0.002678,0.000431,0.001645
8717000,0.0324,0.013523,0.002678,0.000431,0.001410
8718000,0.0324,0.013523,0.002678,0.000431,0.001528
8719000,0.0324,0.013523,0.002678,0.000431,0.001645
8720000,0.0324,0.013523,0.002678,0.000431,0.001763
8721000,0.0324,0.013523,0.002678,0.000431,0.001293
8722000,0.0324,0.013523,0.002678,0.000431,0.001175
8723000,0.0324,0.013523,0.002678,0.000431,0.001645
8724000,0.0324,0.013523,0.002678,0.000431,0.001645
8725000,0.0324,0.013523,0.002678,0.000431,0.001763
8726000,0.0324,0.013523,0.002678,0.000431,0.001528
8727000,0.0324,0.013523,0.002678,0.000431,0.002116
8728000,0.0324,0.013523,0.002678,0.000431,0.001410
8729000,0.0324,0.013523,0.002678,0.000431,0.001410
8730000,0.0324,0.013523,0.002678,0.000431,0.001528
8731000,0.0324,0.013523,0.002678,0.000431,0.001880
8732000,0.0324,0.013523,0.002678,0.000431,0.001528
8733000,0.0324,0.013523,0.002678,0.000431,0.001880
8734000,0.0324,0.013523,0.002678,0.000431,0.001763
8735000,0.0324,0.013523,0.002678,0.000431,0.001645
8736000,0.0324,0.013523,0.002678,0.000431,0.001645
8737000,0.0324,0.013523,0.002678,0.000431,0.001645
8738000,0.0324,0.013523,0.002678,0.000431,0.001880
8739000,0.0324,0.013523,0.002678,0.000431,0.001293
8740000,0.0324,0.013523,0.002678,0.000431,0.001998
8741000,0.0324,0.013523,0.002678,0.000431,0.001645
8742000,0.0324,0.013523,0.002678,0.000431,0.001645
8743000,0.0324,0.013523,0.002678,0.000431,0.001528
8744000,0.0324,0.013523,0.002678,0.000431,0.001998
8745000,0.0324,0.013523,0.002678,0.000431,0.002116
8746000,0.0324,0.013523,0.002678,0.000431,0.001645
8747000,0.0324,0.013523,0.002678,0.000431,0.001293
8748000,0.0324,0.013523,0.002678,0.000431,0.001645
8749000,0.0324,0.013523,0.002678,0.000431,0.001528
8750000,0.0324,0.013523,0.002678,0.000431,0.001763
8751000,0.0324,0.013523,0.002678,0.000431,0.001645
8752000,0.0324,0.013523,0.002678,0.000431,0.001880
8753000,0.0324,0.013523,0.002678,0.000431,0.001645
8754000,0.0324,0.013523,0.002678,0.000431,0.001528
8755000,0.0324,0.013523,0.002678,0.000431,0.001763
8756000,0.0324,0.013523,0.002678,0.000431,0.001645
8757000,0.0324,0.013523,0.002678,0.000431,0.001880
8758000,0.0324,0.013523,0.002678,0.000431,0.001763
8759000,0.0324,0.013523,0.002678,0.000431,0.001528
8760000,0.0324,0.013523,0.002678,0.000431,0.001645
8761000,0.0324,0.013523,0.002678,0.000431,0.001880
8762000,0.0324,0.013523,0.002678,0.000431,0.001175
8763000,0.0324,0.013523,0.002678,0.000431,0.001998
8764000,0.0324,0.013523,0.002678,0.000431,0.001645
8765000,0.0324,0.013523,0.002678,0.000431,0.001175
8766000,0.0324,0.013523,0.002678,0.000431,0.001645
8767000,0.0324,0.013523,0.002678,0.000431,0.001763
8768000,0.0324,0.013523,0.002678,0.000431,0.001763
8769000,0.0324,0.013523,0.002678,0.000431,0.001763
8770000,0.0324,0.013523,0.002678,0.000431,0.001528
8771000,0.0324,0.013523,0.002678,0.000431,0.001645
8772000,0.0324,0.013523,0.002678,0.000431,0.001528
8773000,0.0324,0.013523,0.002678,0.000431,0.001528
8774000,0.0324,0.013523,0.002678,0.000431,0.001528
8775000,0.0324,0.013523,0.002678,0.000431,0.001410
8776000,0.0324,0.013523,0.002678,0.000431,0.001763
8777000,0.0324,0.013523,0.002678,0.000431,0.001763
8778000,0.0324,0.013523,0.002678,0.000431,0.001293
8779000,0.0324,0.013523,0.002678,0.000431,0.001293
8780000,0.0324,0.013523,0.002678,0.000431,0.001645
8781000,0.0324,0.013523,0.002678,0.000431,0.001410
8782000,0.0324,0.013523,0.002678,0.000431,0.002116
8783000,0.0324,0.013523,0.002678,0.000431,0.001763
8784000,0.0324,0.013523,0.002678,0.000431,0.001998
8785000,0.0324,0.013523,0.002678,0.000431,0.001410
8786000,0.0324,0.013523,0.002678,0.000431,0.001645
8787000,0.0324,0.013523,0.002678,0.000431,0.001880
8788000,0.0324,0.013523,0.002678,0.000431,0.001645
8789000,0.0324,0.013523,0.002678,0.000431,0.001763
8790000,0.0324,0.013523,0.002678,0.000431,0.001880
8791000,0.0324,0.013523,0.002678,0.000431,0.001645
8792000,0.0324,0.013523,0.002678,0.000431,0.001763
8793000,0.0324,0.013523,0.002678,0.000431,0.001528
8794000,0.0324,0.013523,0.002678,0.000431,0.001293
8795000,0.0324,0.013523,0.002678,0.000431,0.001645
8796000,0.0324,0.013523,0.002678,0.000431,0.001645
8797000,0.0324,0.013523,0.002678,0.000431,0.001645
8798000,0.0324,0.013523,0.002678,0.000431,0.001528
8799000,0.0324,0.013523,0.002678,0.000431,0.001998
8800000,0.0324,0.013523,0.002678,0.000431,0.001645
8801000,0.0324,0.013523,0.002678,0.000431,0.001410
8802000,0.0324,0.013523,0.002678,0.000431,0.001410
8803000,0.0324,0.013523,0.002678,0.000431,0.001410
8804000,0.0324,0.013523,0.002678,0.000431,0.001410
8805000,0.0324,0.013523,0.002678,0.000431,0.002116
8806000,0.0324,0.013523,0.002678,0.000431,0.001293
8807000,0.0324,0.013523,0.002678,0.000431,0.001528
8808000,0.0324,0.013523,0.002678,0.000431,0.001880
8809000,0.0324,0.013523,0.002678,0.000431,0.001763
8810000,0.0324,0.013523,0.002678,0.000431,0.001293
8811000,0.0324,0.013523,0.002678,0.000431,0.001645
8812000,0.0324,0.013523,0.002678,0.000431,0.001998
8813000,0.0324,0.013523,0.002678,0.000431,0.001763
8814000,0.0324,0.013523,0.002678,0.000431,0.002116
8815000,0.0324,0.013523,0.002678,0.000431,0.001645
8816000,0.0324,0.013523,0.002678,0.000431,0.001058
8817000,0.0324,0.013523,0.002678,0.000431,0.001880
8818000,0.0324,0.013523,0.002678,0.000431,0.001058
8819000,0.0324,0.013523,0.002678,0.000431,0.001645
8820000,0.0324,0.013523,0.002678,0.000431,0.001410
8821000,0.0324,0.013523,0.002678,0.000431,0.001293
8822000,0.0324,0.013523,0.002678,0.000431,0.001763
8823000,0.0324,0.013523,0.002678,0.000431,0.001645
8824000,0.0324,0.013523,0.002678,0.000431,0.001880
8825000,0.0324,0.013523,0.002678,0.000431,0.001645
8826000,0.0324,0.013523,0.002678,0.000431,0.001528
8827000,0.0324,0.013523,0.002678,0.000431,0.001410
8828000,0.0324,0.013523,0.002678,0.000431,0.001763
8829000,0.0324,0.013523,0.002678,0.000431,0.001998
8830000,0.0324,0.013523,0.002678,0.000431,0.001645
8831000,0.0324,0.013523,0.002678,0.000431,0.001528
8832000,0.0324,0.013523,0.002678,0.000431,0.001763
8833000,0.0324,0.013523,0.002678,0.000431,0.001880
8834000,0.0324,0.013523,0.002678,0.000431,0.001880
8835000,0.0324,0.013523,0.002678,0.000431,0.001645
8836000,0.0324,0.013523,0.002678,0.000431,0.001763
8837000,0.0324,0.013523,0.002678,0.000431,0.001528
8838000,0.0324,0.013523,0.002678,0.000431,0.001763
8839000,0.0324,0.013523,0.002678,0.000431,0.001763
8840000,0.0324,0.013523,0.002678,0.000431,0.001528
8841000,0.0324,0.013523,0.002678,0.000431,0.001528
8842000,0.0324,0.013523,0.002678,0.000431,0.002116
8843000,0.0324,0.013523,0.002678,0.000431,0.001880
8844000,0.0324,0.013523,0.002678,0.000431,0.001763
8845000,0.0324,0.013523,0.002678,0.000431,0.001645
8846000,0.0324,0.013523,0.002678,0.000431,0.001763
8847000,0.0324,0.013523,0.002678,0.000431,0.001528
8848000,0.0324,0.013523,0.002678,0.000431,0.001528
8849000,0.0324,0.013523,0.002678,0.000431,0.001880
8850000,0.0324,0.013523,0.002678,0.000431,0.001645
8851000,0.0324,0.013523,0.002678,0.000431,0.001645
8852000,0.0324,0.013523,0.002678,0.000431,0.001645
8853000,0.0324,0.013523,0.002678,0.000431,0.001645
8854000,0.0324,0.013523,0.002678,0.000431,0.001645
8855000,0.0324,0.013523,0.002678,0.000431,0.001763
8856000,0.0324,0.013523,0.002678,0.000431,0.001410
8857000,0.0324,0.013523,0.002678,0.000431,0.001528
8858000,0.0324,0.013523,0.002678,0.000431,0.001528
8859000,0.0324,0.013523,0.002678,0.000431,0.002116
8860000,0.0324,0.013523,0.002678,0.000431,0.001645
8861000,0.0324,0.013523,0.002678,0.000431,0.001645
8862000,0.0324,0.013523,0.002678,0.000431,0.001645
8863000,0.0324,0.013523,0.002678,0.000431,0.001998
8864000,0.0324,0.013523,0.002678,0.000431,0.001645
8865000,0.0324,0.013523,0.002678,0.000431,0.001175
8866000,0.0324,0.013523,0.002678,0.000431,0.001645
8867000,0.0324,0.013523,0.002678,0.000431,0.001058
8868000,0.0324,0.013523,0.002678,0.000431,0.001880
8869000,0.0324,0.013523,0.002678,0.000431,0.001528
8870000,0.0324,0.013523,0.002678,0.000431,0.001645
8871000,0.0324,0.013523,0.002678,0.000431,0.001763
8872000,0.0324,0.013523,0.002678,0.000431,0.001880
8873000,0.0324,0.013523,0.002678,0.000431,0.001645
8874000,0.0324,0.013523,0.002678,0.000431,0.001645
8875000,0.0324,0.013523,0.002678,0.000431,0.001763
8876000,0.0324,0.013523,0.002678,0.000431,0.001763
8877000,0.0324,0.013523,0.002678,0.000431,0.001645
8878000,0.0324,0.013523,0.002678,0.000431,0.001998
8879000,0.0324,0.013523,0.002678,0.000431,0.001528
8880000,0.0324,0.013523,0.002678,0.000431,0.001880
8881000,0.0324,0.013523,0.002678,0.000431,0.001645
8882000,0.0324,0.013523,0.002678,0.000431,0.001763
8883000,0.0324,0.013523,0.002678,0.000431,0.001410
8884000,0.0324,0.013523,0.002678,0.000431,0.001645
8885000,0.0324,0.013523,0.002678,0.000431,0.001998
8886000,0.0324,0.013523,0.002678,0.000431,0.001880
8887000,0.0324,0.013523,0.002678,0.000431,0.001763
8888000,0.0324,0.013523,0.002678,0.000431,0.001645
8889000,0.0324,0.013523,0.002678,0.000431,0.001528
8890000,0.0324,0.013523,0.002678,0.000431,0.001763
8891000,0.0324,0.013523,0.002678,0.000431,0.001645
8892000,0.0324,0.013523,0.002678,0.000431,0.001880
8893000,0.0324,0.013523,0.002678,0.000431,0.001528
8894000,0.0324,0.013523,0.002678,0.000431,0.001645
8895000,0.0324,0.013523,0.002678,0.000431,0.001763
8896000,0.0324,0.013523,0.002678,0.000431,0.001998
8897000,0.0324,0.013523,0.002678,0.000431,0.001410
8898000,0.0324,0.013523,0.002678,0.000431,0.001763
8899000,0.0324,0.013523,0.002678,0.000431,0.001645
8900000,0.0324,0.013523,0.002678,0.000431,0.001410
8901000,0.0324,0.013523,0.002678,0.000431,0.001763
8902000,0.0324,0.013523,0.002678,0.000431,0.001645
8903000,0.0324,0.013523,0.002678,0.000431,0.001763
8904000,0.0324,0.013523,0.002678,0.000431,0.001293
8905000,0.0324,0.013523,0.002678,0.000431,0.001998
8906000,0.0324,0.013523,0.002678,0.000431,0.001528
8907000,0.0324,0.013523,0.002678,0.000431,0.001645
8908000,0.0324,0.013523,0.002678,0.000431,0.001293
8909000,0.0324,0.013523,0.002678,0.000431,0.001528
8910000,0.0324,0.013523,0.002678,0.000431,0.001528
8911000,0.0324,0.013523,0.002678,0.000431,0.001998
8912000,0.0324,0.013523,0.002678,0.000431,0.001763
8913000,0.0324,0.013523,0.002678,0.000431,0.001763
8914000,0.0324,0.013523,0.002678,0.000431,0.001528
8915000,0.0324,0.013523,0.002678,0.000431,0.001763
8916000,0.0324,0.013523,0.002678,0.000431,0.001410
8917000,0.0324,0.013523,0.002678,0.000431,0.001880
8918000,0.0324,0.013523,0.002678,0.000431,0.001410
8919000,0.0324,0.013523,0.002678,0.000431,0.001410
8920000,0.0324,0.013523,0.002678,0.000431,0.001175
8921000,0.0324,0.013523,0.002678,0.000431,0.001645
8922000,0.0324,0.013523,0.002678,0.000431,0.001645
8923000,0.0324,0.013523,0.002678,0.000431,0.001410
8924000,0.0324,0.013523,0.002678,0.000431,0.001528
8925000,0.0324,0.013523,0.002678,0.000431,0.001410
8926000,0.0324,0.013523,0.002678,0.000431,0.001998
8927000,0.0324,0.013523,0.002678,0.000431,0.001880
8928000,0.0324,0.013523,0.002678,0.000431,0.001293
8929000,0.0324,0.013523,0.002678,0.000431,0.001528
8930000,0.0324,0.013523,0.002678,0.000431,0.001645
8931000,0.0324,0.013523,0.002678,0.000431,0.001528
8932000,0.0324,0.013523,0.002678,0.000431,0.001645
8933000,0.0324,0.013523,0.002678,0.000431,0.001293
8934000,0.0324,0.013523,0.002678,0.000431,0.001410
8935000,0.0324,0.013523,0.002678,0.000431,0.001998
8936000,0.0324,0.013523,0.002678,0.000431,0.001410
8937000,0.0324,0.013523,0.002678,0.000431,0.001645
8938000,0.0324,0.013523,0.002678,0.000431,0.001645
8939000,0.0324,0.013523,0.002678,0.000431,0.001763
8940000,0.0324,0.013523,0.002678,0.000431,0.001645
8941000,0.0324,0.013523,0.002678,0.000431,0.001410
8942000,0.0324,0.013523,0.002678,0.000431,0.001410
8943000,0.0324,0.013523,0.002678,0.000431,0.001528
8944000,0.0324,0.013523,0.002678,0.000431,0.001763
8945000,0.0324,0.013523,0.002678,0.000431,0.001645
8946000,0.0324,0.013523,0.002678,0.000431,0.001645
8947000,0.0324,0.013523,0.002678,0.000431,0.001880
8948000,0.0324,0.013523,0.002678,0.000431,0.001645
8949000,0.0324,0.013523,0.002678,0.000431,0.001763
8950000,0.0324,0.013523,0.002678,0.000431,0.001763
8951000,0.0324,0.013523,0.002678,0.000431,0.001175
8952000,0.0324,0.013523,0.002678,0.000431,0.001410
8953000,0.0324,0.013523,0.002678,0.000431,0.001528
8954000,0.0324,0.013523,0.002678,0.000431,0.001763
8955000,0.0324,0.013523,0.002678,0.000431,0.001410
8956000,0.0324,0.013523,0.002678,0.000431,0.001410
8957000,0.0324,0.013523,0.002678,0.000431,0.002116
8958000,0.0324,0.013523,0.002678,0.000431,0.001293
8959000,0.0324,0.013523,0.002678,0.000431,0.001528
8960000,0.0324,0.013523,0.002678,0.000431,0.001880
8961000,0.0324,0.013523,0.002678,0.000431,0.001880
8962000,0.0324,0.013523,0.002678,0.000431,0.001763
8963000,0.0324,0.013523,0.002678,0.000431,0.001645
8964000,0.0324,0.013523,0.002678,0.000431,0.001410
8965000,0.0324,0.013523,0.002678,0.000431,0.001528
8966000,0.0324,0.013523,0.002678,0.000431,0.001880
8967000,0.0324,0.013523,0.002678,0.000431,0.001645
8968000,0.0324,0.013523,0.002678,0.000431,0.001410
8969000,0.0324,0.013523,0.002678,0.000431,0.001998
8970000,0.0324,0.013523,0.002678,0.000431,0.001880
8971000,0.0324,0.013523,0.002678,0.000431,0.001763
8972000,0.0324,0.013523,0.002678,0.000431,0.001645
8973000,0.0324,0.013523,0.002678,0.000431,0.001763
8974000,0.0324,0.013523,0.002678,0.000431,0.001998
8975000,0.0324,0.013523,0.002678,0.000431,0.001410
8976000,0.0324,0.013523,0.002678,0.000431,0.001528
8977000,0.0324,0.013523,0.002678,0.000431,0.001528
8978000,0.0324,0.013523,0.002678,0.000431,0.001998
8979000,0.0324,0.013523,0.002678,0.000431,0.001645
8980000,0.0324,0.013523,0.002678,0.000431,0.001645
8981000,0.0324,0.013523,0.002678,0.000431,0.001528
8982000,0.0324,0.013523,0.002678,0.000431,0.001645
8983000,0.0324,0.013523,0.002678,0.000431,0.001645
8984000,0.0324,0.013523,0.002678,0.000431,0.001998
8985000,0.0324,0.013523,0.002678,0.000431,0.001998
8986000,0.0324,0.013523,0.002678,0.000431,0.001645
8987000,0.0324,0.013523,0.002678,0.000431,0.001293
8988000,0.0324,0.013523,0.002678,0.000431,0.001410
8989000,0.0324,0.013523,0.002678,0.000431,0.001998
8990000,0.0324,0.013523,0.002678,0.000431,0.001763
8991000,0.0324,0.013523,0.002678,0.000431,0.001410
8992000,0.0324,0.013523,0.002678,0.000431,0.001645
8993000,0.0324,0.013523,0.002678,0.000431,0.001880
8994000,0.0324,0.013523,0.002678,0.000431,0.001528
8995000,0.0324,0.013523,0.002678,0.000431,0.002116
8996000,0.0324,0.013523,0.002678,0.000431,0.001645
8997000,0.0324,0.013523,0.002678,0.000431,0.001998
8998000,0.0324,0.013523,0.002678,0.000431,0.001763
8999000,0.0324,0.013523,0.002678,0.000431,0.001293
