Cycle,Area(mm^2),PeakDynamic(W),SubthresholdLeakage(W),GateLeakage(W),RunTimeDynamic(W)
4000000,0.0324,0.013523,0.002678,0.000431,0.007169
4001000,0.0324,0.013523,0.002678,0.000431,0.006934
4002000,0.0324,0.013523,0.002678,0.000431,0.006464
4003000,0.0324,0.013523,0.002678,0.000431,0.007052
4004000,0.0324,0.013523,0.002678,0.000431,0.006817
4005000,0.0324,0.013523,0.002678,0.000431,0.006582
4006000,0.0324,0.013523,0.002678,0.000431,0.006934
4007000,0.0324,0.013523,0.002678,0.000431,0.006699
4008000,0.0324,0.013523,0.002678,0.000431,0.007052
4009000,0.0324,0.013523,0.002678,0.000431,0.006582
4010000,0.0324,0.013523,0.002678,0.000431,0.006817
4011000,0.0324,0.013523,0.002678,0.000431,0.006464
4012000,0.0324,0.013523,0.002678,0.000431,0.007052
4013000,0.0324,0.013523,0.002678,0.000431,0.006934
4014000,0.0324,0.013523,0.002678,0.000431,0.006582
4015000,0.0324,0.013523,0.002678,0.000431,0.006582
4016000,0.0324,0.013523,0.002678,0.000431,0.006934
4017000,0.0324,0.013523,0.002678,0.000431,0.006934
4018000,0.0324,0.013523,0.002678,0.000431,0.006817
4019000,0.0324,0.013523,0.002678,0.000431,0.006582
4020000,0.0324,0.013523,0.002678,0.000431,0.006817
4021000,0.0324,0.013523,0.002678,0.000431,0.007052
4022000,0.0324,0.013523,0.002678,0.000431,0.006464
4023000,0.0324,0.013523,0.002678,0.000431,0.007287
4024000,0.0324,0.013523,0.002678,0.000431,0.006699
4025000,0.0324,0.013523,0.002678,0.000431,0.006582
4026000,0.0324,0.013523,0.002678,0.000431,0.006347
4027000,0.0324,0.013523,0.002678,0.000431,0.005524
4028000,0.0324,0.013523,0.002678,0.000431,0.005994
4029000,0.0324,0.013523,0.002678,0.000431,0.006111
4030000,0.0324,0.013523,0.002678,0.000431,0.005876
4031000,0.0324,0.013523,0.002678,0.000431,0.005994
4032000,0.0324,0.013523,0.002678,0.000431,0.006464
4033000,0.0324,0.013523,0.002678,0.000431,0.005876
4034000,0.0324,0.013523,0.002678,0.000431,0.005994
4035000,0.0324,0.013523,0.002678,0.000431,0.005876
4036000,0.0324,0.013523,0.002678,0.000431,0.006229
4037000,0.0324,0.013523,0.002678,0.000431,0.006582
4038000,0.0324,0.013523,0.002678,0.000431,0.006347
4039000,0.0324,0.013523,0.002678,0.000431,0.006111
4040000,0.0324,0.013523,0.002678,0.000431,0.006464
4041000,0.0324,0.013523,0.002678,0.000431,0.006464
4042000,0.0324,0.013523,0.002678,0.000431,0.005994
4043000,0.0324,0.013523,0.002678,0.000431,0.006111
4044000,0.0324,0.013523,0.002678,0.000431,0.005994
4045000,0.0324,0.013523,0.002678,0.000431,0.006464
4046000,0.0324,0.013523,0.002678,0.000431,0.006464
4047000,0.0324,0.013523,0.002678,0.000431,0.006229
4048000,0.0324,0.013523,0.002678,0.000431,0.006111
4049000,0.0324,0.013523,0.002678,0.000431,0.005994
4050000,0.0324,0.013523,0.002678,0.000431,0.005876
4051000,0.0324,0.013523,0.002678,0.000431,0.006111
4052000,0.0324,0.013523,0.002678,0.000431,0.006582
4053000,0.0324,0.013523,0.002678,0.000431,0.005876
4054000,0.0324,0.013523,0.002678,0.000431,0.005759
4055000,0.0324,0.013523,0.002678,0.000431,0.005994
4056000,0.0324,0.013523,0.002678,0.000431,0.006582
4057000,0.0324,0.013523,0.002678,0.000431,0.006582
4058000,0.0324,0.013523,0.002678,0.000431,0.005994
4059000,0.0324,0.013523,0.002678,0.000431,0.006229
4060000,0.0324,0.013523,0.002678,0.000431,0.006347
4061000,0.0324,0.013523,0.002678,0.000431,0.005994
4062000,0.0324,0.013523,0.002678,0.000431,0.006229
4063000,0.0324,0.013523,0.002678,0.000431,0.006464
4064000,0.0324,0.013523,0.002678,0.000431,0.005759
4065000,0.0324,0.013523,0.002678,0.000431,0.006229
4066000,0.0324,0.013523,0.002678,0.000431,0.006582
4067000,0.0324,0.013523,0.002678,0.000431,0.006111
4068000,0.0324,0.013523,0.002678,0.000431,0.006229
4069000,0.0324,0.013523,0.002678,0.000431,0.006111
4070000,0.0324,0.013523,0.002678,0.000431,0.006229
4071000,0.0324,0.013523,0.002678,0.000431,0.006347
4072000,0.0324,0.013523,0.002678,0.000431,0.006111
4073000,0.0324,0.013523,0.002678,0.000431,0.006111
4074000,0.0324,0.013523,0.002678,0.000431,0.005876
4075000,0.0324,0.013523,0.002678,0.000431,0.005759
4076000,0.0324,0.013523,0.002678,0.000431,0.006464
4077000,0.0324,0.013523,0.002678,0.000431,0.006347
4078000,0.0324,0.013523,0.002678,0.000431,0.006111
4079000,0.0324,0.013523,0.002678,0.000431,0.005994
4080000,0.0324,0.013523,0.002678,0.000431,0.006347
4081000,0.0324,0.013523,0.002678,0.000431,0.005994
4082000,0.0324,0.013523,0.002678,0.000431,0.005994
4083000,0.0324,0.013523,0.002678,0.000431,0.006347
4084000,0.0324,0.013523,0.002678,0.000431,0.005994
4085000,0.0324,0.013523,0.002678,0.000431,0.006229
4086000,0.0324,0.013523,0.002678,0.000431,0.006111
4087000,0.0324,0.013523,0.002678,0.000431,0.006111
4088000,0.0324,0.013523,0.002678,0.000431,0.005994
4089000,0.0324,0.013523,0.002678,0.000431,0.005994
4090000,0.0324,0.013523,0.002678,0.000431,0.006111
4091000,0.0324,0.013523,0.002678,0.000431,0.006347
4092000,0.0324,0.013523,0.002678,0.000431,0.005994
4093000,0.0324,0.013523,0.002678,0.000431,0.006347
4094000,0.0324,0.013523,0.002678,0.000431,0.006111
4095000,0.0324,0.013523,0.002678,0.000431,0.006111
4096000,0.0324,0.013523,0.002678,0.000431,0.006464
4097000,0.0324,0.013523,0.002678,0.000431,0.006347
4098000,0.0324,0.013523,0.002678,0.000431,0.006111
4099000,0.0324,0.013523,0.002678,0.000431,0.006464
4100000,0.0324,0.013523,0.002678,0.000431,0.006111
4101000,0.0324,0.013523,0.002678,0.000431,0.006699
4102000,0.0324,0.013523,0.002678,0.000431,0.006347
4103000,0.0324,0.013523,0.002678,0.000431,0.006347
4104000,0.0324,0.013523,0.002678,0.000431,0.006111
4105000,0.0324,0.013523,0.002678,0.000431,0.006464
4106000,0.0324,0.013523,0.002678,0.000431,0.005759
4107000,0.0324,0.013523,0.002678,0.000431,0.006111
4108000,0.0324,0.013523,0.002678,0.000431,0.006464
4109000,0.0324,0.013523,0.002678,0.000431,0.006111
4110000,0.0324,0.013523,0.002678,0.000431,0.006229
4111000,0.0324,0.013523,0.002678,0.000431,0.005876
4112000,0.0324,0.013523,0.002678,0.000431,0.006229
4113000,0.0324,0.013523,0.002678,0.000431,0.006229
4114000,0.0324,0.013523,0.002678,0.000431,0.006229
4115000,0.0324,0.013523,0.002678,0.000431,0.006111
4116000,0.0324,0.013523,0.002678,0.000431,0.006347
4117000,0.0324,0.013523,0.002678,0.000431,0.006464
4118000,0.0324,0.013523,0.002678,0.000431,0.006111
4119000,0.0324,0.013523,0.002678,0.000431,0.006464
4120000,0.0324,0.013523,0.002678,0.000431,0.005994
4121000,0.0324,0.013523,0.002678,0.000431,0.006347
4122000,0.0324,0.013523,0.002678,0.000431,0.006229
4123000,0.0324,0.013523,0.002678,0.000431,0.005759
4124000,0.0324,0.013523,0.002678,0.000431,0.006347
4125000,0.0324,0.013523,0.002678,0.000431,0.006582
4126000,0.0324,0.013523,0.002678,0.000431,0.005759
4127000,0.0324,0.013523,0.002678,0.000431,0.006582
4128000,0.0324,0.013523,0.002678,0.000431,0.006229
4129000,0.0324,0.013523,0.002678,0.000431,0.006582
4130000,0.0324,0.013523,0.002678,0.000431,0.005994
4131000,0.0324,0.013523,0.002678,0.000431,0.006582
4132000,0.0324,0.013523,0.002678,0.000431,0.006347
4133000,0.0324,0.013523,0.002678,0.000431,0.006111
4134000,0.0324,0.013523,0.002678,0.000431,0.006464
4135000,0.0324,0.013523,0.002678,0.000431,0.005994
4136000,0.0324,0.013523,0.002678,0.000431,0.006347
4137000,0.0324,0.013523,0.002678,0.000431,0.006229
4138000,0.0324,0.013523,0.002678,0.000431,0.005876
4139000,0.0324,0.013523,0.002678,0.000431,0.006582
4140000,0.0324,0.013523,0.002678,0.000431,0.005759
4141000,0.0324,0.013523,0.002678,0.000431,0.005759
4142000,0.0324,0.013523,0.002678,0.000431,0.005524
4143000,0.0324,0.013523,0.002678,0.000431,0.005289
4144000,0.0324,0.013523,0.002678,0.000431,0.005406
4145000,0.0324,0.013523,0.002678,0.000431,0.006111
4146000,0.0324,0.013523,0.002678,0.000431,0.004349
4147000,0.0324,0.013523,0.002678,0.000431,0.004936
4148000,0.0324,0.013523,0.002678,0.000431,0.004701
4149000,0.0324,0.013523,0.002678,0.000431,0.004936
4150000,0.0324,0.013523,0.002678,0.000431,0.004584
4151000,0.0324,0.013523,0.002678,0.000431,0.004819
4152000,0.0324,0.013523,0.002678,0.000431,0.004819
4153000,0.0324,0.013523,0.002678,0.000431,0.004819
4154000,0.0324,0.013523,0.002678,0.000431,0.004819
4155000,0.0324,0.013523,0.002678,0.000431,0.004936
4156000,0.0324,0.013523,0.002678,0.000431,0.004584
4157000,0.0324,0.013523,0.002678,0.000431,0.005054
4158000,0.0324,0.013523,0.002678,0.000431,0.005171
4159000,0.0324,0.013523,0.002678,0.000431,0.004936
4160000,0.0324,0.013523,0.002678,0.000431,0.004936
4161000,0.0324,0.013523,0.002678,0.000431,0.005171
4162000,0.0324,0.013523,0.002678,0.000431,0.004584
4163000,0.0324,0.013523,0.002678,0.000431,0.004701
4164000,0.0324,0.013523,0.002678,0.000431,0.004819
4165000,0.0324,0.013523,0.002678,0.000431,0.004936
4166000,0.0324,0.013523,0.002678,0.000431,0.004819
4167000,0.0324,0.013523,0.002678,0.000431,0.004701
4168000,0.0324,0.013523,0.002678,0.000431,0.004701
4169000,0.0324,0.013523,0.002678,0.000431,0.005171
4170000,0.0324,0.013523,0.002678,0.000431,0.004936
4171000,0.0324,0.013523,0.002678,0.000431,0.004584
4172000,0.0324,0.013523,0.002678,0.000431,0.004936
4173000,0.0324,0.013523,0.002678,0.000431,0.005289
4174000,0.0324,0.013523,0.002678,0.000431,0.004819
4175000,0.0324,0.013523,0.002678,0.000431,0.005289
4176000,0.0324,0.013523,0.002678,0.000431,0.004936
4177000,0.0324,0.013523,0.002678,0.000431,0.005054
4178000,0.0324,0.013523,0.002678,0.000431,0.004701
4179000,0.0324,0.013523,0.002678,0.000431,0.004701
4180000,0.0324,0.013523,0.002678,0.000431,0.005054
4181000,0.0324,0.013523,0.002678,0.000431,0.004819
4182000,0.0324,0.013523,0.002678,0.000431,0.005054
4183000,0.0324,0.013523,0.002678,0.000431,0.004936
4184000,0.0324,0.013523,0.002678,0.000431,0.004819
4185000,0.0324,0.013523,0.002678,0.000431,0.004349
4186000,0.0324,0.013523,0.002678,0.000431,0.005054
4187000,0.0324,0.013523,0.002678,0.000431,0.005289
4188000,0.0324,0.013523,0.002678,0.000431,0.004584
4189000,0.0324,0.013523,0.002678,0.000431,0.004584
4190000,0.0324,0.013523,0.002678,0.000431,0.004936
4191000,0.0324,0.013523,0.002678,0.000431,0.004819
4192000,0.0324,0.013523,0.002678,0.000431,0.004819
4193000,0.0324,0.013523,0.002678,0.000431,0.005171
4194000,0.0324,0.013523,0.002678,0.000431,0.004466
4195000,0.0324,0.013523,0.002678,0.000431,0.005054
4196000,0.0324,0.013523,0.002678,0.000431,0.005289
4197000,0.0324,0.013523,0.002678,0.000431,0.004466
4198000,0.0324,0.013523,0.002678,0.000431,0.005054
4199000,0.0324,0.013523,0.002678,0.000431,0.005054
4200000,0.0324,0.013523,0.002678,0.000431,0.004819
4201000,0.0324,0.013523,0.002678,0.000431,0.004701
4202000,0.0324,0.013523,0.002678,0.000431,0.004819
4203000,0.0324,0.013523,0.002678,0.000431,0.004936
4204000,0.0324,0.013523,0.002678,0.000431,0.004819
4205000,0.0324,0.013523,0.002678,0.000431,0.004819
4206000,0.0324,0.013523,0.002678,0.000431,0.004936
4207000,0.0324,0.013523,0.002678,0.000431,0.005054
4208000,0.0324,0.013523,0.002678,0.000431,0.004701
4209000,0.0324,0.013523,0.002678,0.000431,0.005054
4210000,0.0324,0.013523,0.002678,0.000431,0.004701
4211000,0.0324,0.013523,0.002678,0.000431,0.005054
4212000,0.0324,0.013523,0.002678,0.000431,0.004819
4213000,0.0324,0.013523,0.002678,0.000431,0.005171
4214000,0.0324,0.013523,0.002678,0.000431,0.004819
4215000,0.0324,0.013523,0.002678,0.000431,0.004819
4216000,0.0324,0.013523,0.002678,0.000431,0.004819
4217000,0.0324,0.013523,0.002678,0.000431,0.004819
4218000,0.0324,0.013523,0.002678,0.000431,0.004936
4219000,0.0324,0.013523,0.002678,0.000431,0.005289
4220000,0.0324,0.013523,0.002678,0.000431,0.004819
4221000,0.0324,0.013523,0.002678,0.000431,0.004819
4222000,0.0324,0.013523,0.002678,0.000431,0.004819
4223000,0.0324,0.013523,0.002678,0.000431,0.004936
4224000,0.0324,0.013523,0.002678,0.000431,0.004701
4225000,0.0324,0.013523,0.002678,0.000431,0.005406
4226000,0.0324,0.013523,0.002678,0.000431,0.004584
4227000,0.0324,0.013523,0.002678,0.000431,0.004349
4228000,0.0324,0.013523,0.002678,0.000431,0.004936
4229000,0.0324,0.013523,0.002678,0.000431,0.005054
4230000,0.0324,0.013523,0.002678,0.000431,0.004701
4231000,0.0324,0.013523,0.002678,0.000431,0.005054
4232000,0.0324,0.013523,0.002678,0.000431,0.004936
4233000,0.0324,0.013523,0.002678,0.000431,0.004936
4234000,0.0324,0.013523,0.002678,0.000431,0.004701
4235000,0.0324,0.013523,0.002678,0.000431,0.005171
4236000,0.0324,0.013523,0.002678,0.000431,0.004936
4237000,0.0324,0.013523,0.002678,0.000431,0.004936
4238000,0.0324,0.013523,0.002678,0.000431,0.004936
4239000,0.0324,0.013523,0.002678,0.000431,0.004936
4240000,0.0324,0.013523,0.002678,0.000431,0.005171
4241000,0.0324,0.013523,0.002678,0.000431,0.004349
4242000,0.0324,0.013523,0.002678,0.000431,0.004936
4243000,0.0324,0.013523,0.002678,0.000431,0.005054
4244000,0.0324,0.013523,0.002678,0.000431,0.005054
4245000,0.0324,0.013523,0.002678,0.000431,0.005289
4246000,0.0324,0.013523,0.002678,0.000431,0.004466
4247000,0.0324,0.013523,0.002678,0.000431,0.005171
4248000,0.0324,0.013523,0.002678,0.000431,0.004584
4249000,0.0324,0.013523,0.002678,0.000431,0.005054
4250000,0.0324,0.013523,0.002678,0.000431,0.004819
4251000,0.0324,0.013523,0.002678,0.000431,0.004936
4252000,0.0324,0.013523,0.002678,0.000431,0.004936
4253000,0.0324,0.013523,0.002678,0.000431,0.005171
4254000,0.0324,0.013523,0.002678,0.000431,0.004701
4255000,0.0324,0.013523,0.002678,0.000431,0.004819
4256000,0.0324,0.013523,0.002678,0.000431,0.004936
4257000,0.0324,0.013523,0.002678,0.000431,0.005171
4258000,0.0324,0.013523,0.002678,0.000431,0.004819
4259000,0.0324,0.013523,0.002678,0.000431,0.004936
4260000,0.0324,0.013523,0.002678,0.000431,0.004819
4261000,0.0324,0.013523,0.002678,0.000431,0.004936
4262000,0.0324,0.013523,0.002678,0.000431,0.005054
4263000,0.0324,0.013523,0.002678,0.000431,0.004819
4264000,0.0324,0.013523,0.002678,0.000431,0.005289
4265000,0.0324,0.013523,0.002678,0.000431,0.004349
4266000,0.0324,0.013523,0.002678,0.000431,0.004701
4267000,0.0324,0.013523,0.002678,0.000431,0.003996
4268000,0.0324,0.013523,0.002678,0.000431,0.003878
4269000,0.0324,0.013523,0.002678,0.000431,0.004466
4270000,0.0324,0.013523,0.002678,0.000431,0.003996
4271000,0.0324,0.013523,0.002678,0.000431,0.004349
4272000,0.0324,0.013523,0.002678,0.000431,0.004113
4273000,0.0324,0.013523,0.002678,0.000431,0.004113
4274000,0.0324,0.013523,0.002678,0.000431,0.003761
4275000,0.0324,0.013523,0.002678,0.000431,0.004349
4276000,0.0324,0.013523,0.002678,0.000431,0.004349
4277000,0.0324,0.013523,0.002678,0.000431,0.003996
4278000,0.0324,0.013523,0.002678,0.000431,0.004349
4279000,0.0324,0.013523,0.002678,0.000431,0.004231
4280000,0.0324,0.013523,0.002678,0.000431,0.004231
4281000,0.0324,0.013523,0.002678,0.000431,0.004231
4282000,0.0324,0.013523,0.002678,0.000431,0.004466
4283000,0.0324,0.013523,0.002678,0.000431,0.003996
4284000,0.0324,0.013523,0.002678,0.000431,0.004231
4285000,0.0324,0.013523,0.002678,0.000431,0.003996
4286000,0.0324,0.013523,0.002678,0.000431,0.003996
4287000,0.0324,0.013523,0.002678,0.000431,0.004113
4288000,0.0324,0.013523,0.002678,0.000431,0.004231
4289000,0.0324,0.013523,0.002678,0.000431,0.003878
4290000,0.0324,0.013523,0.002678,0.000431,0.004349
4291000,0.0324,0.013523,0.002678,0.000431,0.004349
4292000,0.0324,0.013523,0.002678,0.000431,0.004231
4293000,0.0324,0.013523,0.002678,0.000431,0.003878
4294000,0.0324,0.013523,0.002678,0.000431,0.003761
4295000,0.0324,0.013523,0.002678,0.000431,0.004466
4296000,0.0324,0.013523,0.002678,0.000431,0.003996
4297000,0.0324,0.013523,0.002678,0.000431,0.004113
4298000,0.0324,0.013523,0.002678,0.000431,0.004113
4299000,0.0324,0.013523,0.002678,0.000431,0.004584
4300000,0.0324,0.013523,0.002678,0.000431,0.003526
4301000,0.0324,0.013523,0.002678,0.000431,0.003643
4302000,0.0324,0.013523,0.002678,0.000431,0.003643
4303000,0.0324,0.013523,0.002678,0.000431,0.003643
4304000,0.0324,0.013523,0.002678,0.000431,0.003291
4305000,0.0324,0.013523,0.002678,0.000431,0.003761
4306000,0.0324,0.013523,0.002678,0.000431,0.003408
4307000,0.0324,0.013523,0.002678,0.000431,0.003173
4308000,0.0324,0.013523,0.002678,0.000431,0.003761
4309000,0.0324,0.013523,0.002678,0.000431,0.003526
4310000,0.0324,0.013523,0.002678,0.000431,0.003643
4311000,0.0324,0.013523,0.002678,0.000431,0.003408
4312000,0.0324,0.013523,0.002678,0.000431,0.003643
4313000,0.0324,0.013523,0.002678,0.000431,0.003408
4314000,0.0324,0.013523,0.002678,0.000431,0.003408
4315000,0.0324,0.013523,0.002678,0.000431,0.003408
4316000,0.0324,0.013523,0.002678,0.000431,0.003526
4317000,0.0324,0.013523,0.002678,0.000431,0.003526
4318000,0.0324,0.013523,0.002678,0.000431,0.003291
4319000,0.0324,0.013523,0.002678,0.000431,0.003643
4320000,0.0324,0.013523,0.002678,0.000431,0.003643
4321000,0.0324,0.013523,0.002678,0.000431,0.003408
4322000,0.0324,0.013523,0.002678,0.000431,0.003761
4323000,0.0324,0.013523,0.002678,0.000431,0.003526
4324000,0.0324,0.013523,0.002678,0.000431,0.003761
4325000,0.0324,0.013523,0.002678,0.000431,0.003408
4326000,0.0324,0.013523,0.002678,0.000431,0.003526
4327000,0.0324,0.013523,0.002678,0.000431,0.003526
4328000,0.0324,0.013523,0.002678,0.000431,0.003643
4329000,0.0324,0.013523,0.002678,0.000431,0.003526
4330000,0.0324,0.013523,0.002678,0.000431,0.003291
4331000,0.0324,0.013523,0.002678,0.000431,0.003643
4332000,0.0324,0.013523,0.002678,0.000431,0.003643
4333000,0.0324,0.013523,0.002678,0.000431,0.003996
4334000,0.0324,0.013523,0.002678,0.000431,0.003408
4335000,0.0324,0.013523,0.002678,0.000431,0.003291
4336000,0.0324,0.013523,0.002678,0.000431,0.003996
4337000,0.0324,0.013523,0.002678,0.000431,0.003526
4338000,0.0324,0.013523,0.002678,0.000431,0.003526
4339000,0.0324,0.013523,0.002678,0.000431,0.003643
4340000,0.0324,0.013523,0.002678,0.000431,0.003526
4341000,0.0324,0.013523,0.002678,0.000431,0.003408
4342000,0.0324,0.013523,0.002678,0.000431,0.003526
4343000,0.0324,0.013523,0.002678,0.000431,0.003526
4344000,0.0324,0.013523,0.002678,0.000431,0.003526
4345000,0.0324,0.013523,0.002678,0.000431,0.003173
4346000,0.0324,0.013523,0.002678,0.000431,0.003643
4347000,0.0324,0.013523,0.002678,0.000431,0.003173
4348000,0.0324,0.013523,0.002678,0.000431,0.003996
4349000,0.0324,0.013523,0.002678,0.000431,0.003526
4350000,0.0324,0.013523,0.002678,0.000431,0.003291
4351000,0.0324,0.013523,0.002678,0.000431,0.003526
4352000,0.0324,0.013523,0.002678,0.000431,0.003408
4353000,0.0324,0.013523,0.002678,0.000431,0.003056
4354000,0.0324,0.013523,0.002678,0.000431,0.003643
4355000,0.0324,0.013523,0.002678,0.000431,0.003526
4356000,0.0324,0.013523,0.002678,0.000431,0.003761
4357000,0.0324,0.013523,0.002678,0.000431,0.003408
4358000,0.0324,0.013523,0.002678,0.000431,0.003761
4359000,0.0324,0.013523,0.002678,0.000431,0.003643
4360000,0.0324,0.013523,0.002678,0.000431,0.003643
4361000,0.0324,0.013523,0.002678,0.000431,0.003408
4362000,0.0324,0.013523,0.002678,0.000431,0.003761
4363000,0.0324,0.013523,0.002678,0.000431,0.003643
4364000,0.0324,0.013523,0.002678,0.000431,0.003643
4365000,0.0324,0.013523,0.002678,0.000431,0.003526
4366000,0.0324,0.013523,0.002678,0.000431,0.003643
4367000,0.0324,0.013523,0.002678,0.000431,0.003291
4368000,0.0324,0.013523,0.002678,0.000431,0.003408
4369000,0.0324,0.013523,0.002678,0.000431,0.003526
4370000,0.0324,0.013523,0.002678,0.000431,0.003408
4371000,0.0324,0.013523,0.002678,0.000431,0.003643
4372000,0.0324,0.013523,0.002678,0.000431,0.003408
4373000,0.0324,0.013523,0.002678,0.000431,0.003761
4374000,0.0324,0.013523,0.002678,0.000431,0.003408
4375000,0.0324,0.013523,0.002678,0.000431,0.003408
4376000,0.0324,0.013523,0.002678,0.000431,0.003643
4377000,0.0324,0.013523,0.002678,0.000431,0.003643
4378000,0.0324,0.013523,0.002678,0.000431,0.003526
4379000,0.0324,0.013523,0.002678,0.000431,0.003761
4380000,0.0324,0.013523,0.002678,0.000431,0.003291
4381000,0.0324,0.013523,0.002678,0.000431,0.003761
4382000,0.0324,0.013523,0.002678,0.000431,0.003643
4383000,0.0324,0.013523,0.002678,0.000431,0.003643
4384000,0.0324,0.013523,0.002678,0.000431,0.003526
4385000,0.0324,0.013523,0.002678,0.000431,0.003408
4386000,0.0324,0.013523,0.002678,0.000431,0.003878
4387000,0.0324,0.013523,0.002678,0.000431,0.003643
4388000,0.0324,0.013523,0.002678,0.000431,0.003526
4389000,0.0324,0.013523,0.002678,0.000431,0.003291
4390000,0.0324,0.013523,0.002678,0.000431,0.003761
4391000,0.0324,0.013523,0.002678,0.000431,0.003761
4392000,0.0324,0.013523,0.002678,0.000431,0.003526
4393000,0.0324,0.013523,0.002678,0.000431,0.003408
4394000,0.0324,0.013523,0.002678,0.000431,0.003643
4395000,0.0324,0.013523,0.002678,0.000431,0.003291
4396000,0.0324,0.013523,0.002678,0.000431,0.003526
4397000,0.0324,0.013523,0.002678,0.000431,0.003761
4398000,0.0324,0.013523,0.002678,0.000431,0.003526
4399000,0.0324,0.013523,0.002678,0.000431,0.003526
4400000,0.0324,0.013523,0.002678,0.000431,0.003291
4401000,0.0324,0.013523,0.002678,0.000431,0.003526
4402000,0.0324,0.013523,0.002678,0.000431,0.003526
4403000,0.0324,0.013523,0.002678,0.000431,0.003643
4404000,0.0324,0.013523,0.002678,0.000431,0.003643
4405000,0.0324,0.013523,0.002678,0.000431,0.003408
4406000,0.0324,0.013523,0.002678,0.000431,0.003408
4407000,0.0324,0.013523,0.002678,0.000431,0.003173
4408000,0.0324,0.013523,0.002678,0.000431,0.003761
4409000,0.0324,0.013523,0.002678,0.000431,0.003173
4410000,0.0324,0.013523,0.002678,0.000431,0.003526
4411000,0.0324,0.013523,0.002678,0.000431,0.003526
4412000,0.0324,0.013523,0.002678,0.000431,0.003291
4413000,0.0324,0.013523,0.002678,0.000431,0.003291
4414000,0.0324,0.013523,0.002678,0.000431,0.003643
4415000,0.0324,0.013523,0.002678,0.000431,0.003643
4416000,0.0324,0.013523,0.002678,0.000431,0.003643
4417000,0.0324,0.013523,0.002678,0.000431,0.003526
4418000,0.0324,0.013523,0.002678,0.000431,0.003761
4419000,0.0324,0.013523,0.002678,0.000431,0.003408
4420000,0.0324,0.013523,0.002678,0.000431,0.003643
4421000,0.0324,0.013523,0.002678,0.000431,0.003526
4422000,0.0324,0.013523,0.002678,0.000431,0.003408
4423000,0.0324,0.013523,0.002678,0.000431,0.003643
4424000,0.0324,0.013523,0.002678,0.000431,0.003173
4425000,0.0324,0.013523,0.002678,0.000431,0.003643
4426000,0.0324,0.013523,0.002678,0.000431,0.003173
4427000,0.0324,0.013523,0.002678,0.000431,0.003526
4428000,0.0324,0.013523,0.002678,0.000431,0.003643
4429000,0.0324,0.013523,0.002678,0.000431,0.003761
4430000,0.0324,0.013523,0.002678,0.000431,0.003408
4431000,0.0324,0.013523,0.002678,0.000431,0.003526
4432000,0.0324,0.013523,0.002678,0.000431,0.003526
4433000,0.0324,0.013523,0.002678,0.000431,0.003526
4434000,0.0324,0.013523,0.002678,0.000431,0.003408
4435000,0.0324,0.013523,0.002678,0.000431,0.003761
4436000,0.0324,0.013523,0.002678,0.000431,0.003526
4437000,0.0324,0.013523,0.002678,0.000431,0.003761
4438000,0.0324,0.013523,0.002678,0.000431,0.003056
4439000,0.0324,0.013523,0.002678,0.000431,0.003761
4440000,0.0324,0.013523,0.002678,0.000431,0.003761
4441000,0.0324,0.013523,0.002678,0.000431,0.003526
4442000,0.0324,0.013523,0.002678,0.000431,0.003761
4443000,0.0324,0.013523,0.002678,0.000431,0.003526
4444000,0.0324,0.013523,0.002678,0.000431,0.003526
4445000,0.0324,0.013523,0.002678,0.000431,0.003643
4446000,0.0324,0.013523,0.002678,0.000431,0.003408
4447000,0.0324,0.013523,0.002678,0.000431,0.003643
4448000,0.0324,0.013523,0.002678,0.000431,0.003643
4449000,0.0324,0.013523,0.002678,0.000431,0.003408
4450000,0.0324,0.013523,0.002678,0.000431,0.003996
4451000,0.0324,0.013523,0.002678,0.000431,0.003291
4452000,0.0324,0.013523,0.002678,0.000431,0.003761
4453000,0.0324,0.013523,0.002678,0.000431,0.003526
4454000,0.0324,0.013523,0.002678,0.000431,0.003408
4455000,0.0324,0.013523,0.002678,0.000431,0.003643
4456000,0.0324,0.013523,0.002678,0.000431,0.003761
4457000,0.0324,0.013523,0.002678,0.000431,0.003056
4458000,0.0324,0.013523,0.002678,0.000431,0.003408
4459000,0.0324,0.013523,0.002678,0.000431,0.003526
4460000,0.0324,0.013523,0.002678,0.000431,0.003526
4461000,0.0324,0.013523,0.002678,0.000431,0.003408
4462000,0.0324,0.013523,0.002678,0.000431,0.003643
4463000,0.0324,0.013523,0.002678,0.000431,0.003643
4464000,0.0324,0.013523,0.002678,0.000431,0.003291
4465000,0.0324,0.013523,0.002678,0.000431,0.003526
4466000,0.0324,0.013523,0.002678,0.000431,0.003643
4467000,0.0324,0.013523,0.002678,0.000431,0.002938
4468000,0.0324,0.013523,0.002678,0.000431,0.003643
4469000,0.0324,0.013523,0.002678,0.000431,0.003643
4470000,0.0324,0.013523,0.002678,0.000431,0.003761
4471000,0.0324,0.013523,0.002678,0.000431,0.003526
4472000,0.0324,0.013523,0.002678,0.000431,0.003761
4473000,0.0324,0.013523,0.002678,0.000431,0.003643
4474000,0.0324,0.013523,0.002678,0.000431,0.003408
4475000,0.0324,0.013523,0.002678,0.000431,0.003408
4476000,0.0324,0.013523,0.002678,0.000431,0.003643
4477000,0.0324,0.013523,0.002678,0.000431,0.003643
4478000,0.0324,0.013523,0.002678,0.000431,0.003408
4479000,0.0324,0.013523,0.002678,0.000431,0.003761
4480000,0.0324,0.013523,0.002678,0.000431,0.003408
4481000,0.0324,0.013523,0.002678,0.000431,0.003643
4482000,0.0324,0.013523,0.002678,0.000431,0.003643
4483000,0.0324,0.013523,0.002678,0.000431,0.003878
4484000,0.0324,0.013523,0.002678,0.000431,0.003643
4485000,0.0324,0.013523,0.002678,0.000431,0.003643
4486000,0.0324,0.013523,0.002678,0.000431,0.003761
4487000,0.0324,0.013523,0.002678,0.000431,0.003643
4488000,0.0324,0.013523,0.002678,0.000431,0.003526
4489000,0.0324,0.013523,0.002678,0.000431,0.003526
4490000,0.0324,0.013523,0.002678,0.000431,0.003526
4491000,0.0324,0.013523,0.002678,0.000431,0.003291
4492000,0.0324,0.013523,0.002678,0.000431,0.003643
4493000,0.0324,0.013523,0.002678,0.000431,0.003173
4494000,0.0324,0.013523,0.002678,0.000431,0.003526
4495000,0.0324,0.013523,0.002678,0.000431,0.003526
4496000,0.0324,0.013523,0.002678,0.000431,0.003526
4497000,0.0324,0.013523,0.002678,0.000431,0.003643
4498000,0.0324,0.013523,0.002678,0.000431,0.003643
4499000,0.0324,0.013523,0.002678,0.000431,0.003526
4500000,0.0324,0.013523,0.002678,0.000431,0.003408
4501000,0.0324,0.013523,0.002678,0.000431,0.003408
4502000,0.0324,0.013523,0.002678,0.000431,0.003761
4503000,0.0324,0.013523,0.002678,0.000431,0.003408
4504000,0.0324,0.013523,0.002678,0.000431,0.003761
4505000,0.0324,0.013523,0.002678,0.000431,0.003761
4506000,0.0324,0.013523,0.002678,0.000431,0.002938
4507000,0.0324,0.013523,0.002678,0.000431,0.002821
4508000,0.0324,0.013523,0.002678,0.000431,0.002703
4509000,0.0324,0.013523,0.002678,0.000431,0.002821
4510000,0.0324,0.013523,0.002678,0.000431,0.002821
4511000,0.0324,0.013523,0.002678,0.000431,0.002938
4512000,0.0324,0.013523,0.002678,0.000431,0.002703
4513000,0.0324,0.013523,0.002678,0.000431,0.002586
4514000,0.0324,0.013523,0.002678,0.000431,0.002821
4515000,0.0324,0.013523,0.002678,0.000431,0.002821
4516000,0.0324,0.013523,0.002678,0.000431,0.002821
4517000,0.0324,0.013523,0.002678,0.000431,0.002703
4518000,0.0324,0.013523,0.002678,0.000431,0.002938
4519000,0.0324,0.013523,0.002678,0.000431,0.002938
4520000,0.0324,0.013523,0.002678,0.000431,0.002468
4521000,0.0324,0.013523,0.002678,0.000431,0.002468
4522000,0.0324,0.013523,0.002678,0.000431,0.002586
4523000,0.0324,0.013523,0.002678,0.000431,0.002821
4524000,0.0324,0.013523,0.002678,0.000431,0.002586
4525000,0.0324,0.013523,0.002678,0.000431,0.003056
4526000,0.0324,0.013523,0.002678,0.000431,0.002703
4527000,0.0324,0.013523,0.002678,0.000431,0.002821
4528000,0.0324,0.013523,0.002678,0.000431,0.002703
4529000,0.0324,0.013523,0.002678,0.000431,0.002703
4530000,0.0324,0.013523,0.002678,0.000431,0.002821
4531000,0.0324,0.013523,0.002678,0.000431,0.002938
4532000,0.0324,0.013523,0.002678,0.000431,0.002938
4533000,0.0324,0.013523,0.002678,0.000431,0.002703
4534000,0.0324,0.013523,0.002678,0.000431,0.002938
4535000,0.0324,0.013523,0.002678,0.000431,0.002703
4536000,0.0324,0.013523,0.002678,0.000431,0.003056
4537000,0.0324,0.013523,0.002678,0.000431,0.002703
4538000,0.0324,0.013523,0.002678,0.000431,0.002233
4539000,0.0324,0.013523,0.002678,0.000431,0.002116
4540000,0.0324,0.013523,0.002678,0.000431,0.002116
4541000,0.0324,0.013523,0.002678,0.000431,0.001880
4542000,0.0324,0.013523,0.002678,0.000431,0.002351
4543000,0.0324,0.013523,0.002678,0.000431,0.002116
4544000,0.0324,0.013523,0.002678,0.000431,0.001998
4545000,0.0324,0.013523,0.002678,0.000431,0.002233
4546000,0.0324,0.013523,0.002678,0.000431,0.002351
4547000,0.0324,0.013523,0.002678,0.000431,0.001880
4548000,0.0324,0.013523,0.002678,0.000431,0.002116
4549000,0.0324,0.013523,0.002678,0.000431,0.002116
4550000,0.0324,0.013523,0.002678,0.000431,0.002233
4551000,0.0324,0.013523,0.002678,0.000431,0.001998
4552000,0.0324,0.013523,0.002678,0.000431,0.002116
4553000,0.0324,0.013523,0.002678,0.000431,0.002116
4554000,0.0324,0.013523,0.002678,0.000431,0.002351
4555000,0.0324,0.013523,0.002678,0.000431,0.002116
4556000,0.0324,0.013523,0.002678,0.000431,0.002116
4557000,0.0324,0.013523,0.002678,0.000431,0.002116
4558000,0.0324,0.013523,0.002678,0.000431,0.002116
4559000,0.0324,0.013523,0.002678,0.000431,0.002116
4560000,0.0324,0.013523,0.002678,0.000431,0.002116
4561000,0.0324,0.013523,0.002678,0.000431,0.001998
4562000,0.0324,0.013523,0.002678,0.000431,0.002233
4563000,0.0324,0.013523,0.002678,0.000431,0.002116
4564000,0.0324,0.013523,0.002678,0.000431,0.001998
4565000,0.0324,0.013523,0.002678,0.000431,0.002116
4566000,0.0324,0.013523,0.002678,0.000431,0.002351
4567000,0.0324,0.013523,0.002678,0.000431,0.001998
4568000,0.0324,0.013523,0.002678,0.000431,0.002116
4569000,0.0324,0.013523,0.002678,0.000431,0.002116
4570000,0.0324,0.013523,0.002678,0.000431,0.002116
4571000,0.0324,0.013523,0.002678,0.000431,0.002116
4572000,0.0324,0.013523,0.002678,0.000431,0.002116
4573000,0.0324,0.013523,0.002678,0.000431,0.002233
4574000,0.0324,0.013523,0.002678,0.000431,0.001998
4575000,0.0324,0.013523,0.002678,0.000431,0.002586
4576000,0.0324,0.013523,0.002678,0.000431,0.001175
4577000,0.0324,0.013523,0.002678,0.000431,0.001410
4578000,0.0324,0.013523,0.002678,0.000431,0.001645
4579000,0.0324,0.013523,0.002678,0.000431,0.001528
4580000,0.0324,0.013523,0.002678,0.000431,0.001410
4581000,0.0324,0.013523,0.002678,0.000431,0.001293
4582000,0.0324,0.013523,0.002678,0.000431,0.001175
4583000,0.0324,0.013523,0.002678,0.000431,0.001645
4584000,0.0324,0.013523,0.002678,0.000431,0.001293
4585000,0.0324,0.013523,0.002678,0.000431,0.001293
4586000,0.0324,0.013523,0.002678,0.000431,0.001528
4587000,0.0324,0.013523,0.002678,0.000431,0.001175
4588000,0.0324,0.013523,0.002678,0.000431,0.001293
4589000,0.0324,0.013523,0.002678,0.000431,0.001528
4590000,0.0324,0.013523,0.002678,0.000431,0.001410
4591000,0.0324,0.013523,0.002678,0.000431,0.001410
4592000,0.0324,0.013523,0.002678,0.000431,0.001410
4593000,0.0324,0.013523,0.002678,0.000431,0.001528
4594000,0.0324,0.013523,0.002678,0.000431,0.001410
4595000,0.0324,0.013523,0.002678,0.000431,0.001410
4596000,0.0324,0.013523,0.002678,0.000431,0.001645
4597000,0.0324,0.013523,0.002678,0.000431,0.001410
4598000,0.0324,0.013523,0.002678,0.000431,0.001410
4599000,0.0324,0.013523,0.002678,0.000431,0.001058
4600000,0.0324,0.013523,0.002678,0.000431,0.001528
4601000,0.0324,0.013523,0.002678,0.000431,0.001293
4602000,0.0324,0.013523,0.002678,0.000431,0.001293
4603000,0.0324,0.013523,0.002678,0.000431,0.001528
4604000,0.0324,0.013523,0.002678,0.000431,0.001175
4605000,0.0324,0.013523,0.002678,0.000431,0.001528
4606000,0.0324,0.013523,0.002678,0.000431,0.001645
4607000,0.0324,0.013523,0.002678,0.000431,0.001293
4608000,0.0324,0.013523,0.002678,0.000431,0.001410
4609000,0.0324,0.013523,0.002678,0.000431,0.001410
4610000,0.0324,0.013523,0.002678,0.000431,0.001528
4611000,0.0324,0.013523,0.002678,0.000431,0.001528
4612000,0.0324,0.013523,0.002678,0.000431,0.001293
4613000,0.0324,0.013523,0.002678,0.000431,0.001293
4614000,0.0324,0.013523,0.002678,0.000431,0.001528
4615000,0.0324,0.013523,0.002678,0.000431,0.001410
4616000,0.0324,0.013523,0.002678,0.000431,0.001175
4617000,0.0324,0.013523,0.002678,0.000431,0.001410
4618000,0.0324,0.013523,0.002678,0.000431,0.001528
4619000,0.0324,0.013523,0.002678,0.000431,0.001410
4620000,0.0324,0.013523,0.002678,0.000431,0.001410
4621000,0.0324,0.013523,0.002678,0.000431,0.001528
4622000,0.0324,0.013523,0.002678,0.000431,0.001175
4623000,0.0324,0.013523,0.002678,0.000431,0.001410
4624000,0.0324,0.013523,0.002678,0.000431,0.001528
4625000,0.0324,0.013523,0.002678,0.000431,0.001293
4626000,0.0324,0.013523,0.002678,0.000431,0.001410
4627000,0.0324,0.013523,0.002678,0.000431,0.001528
4628000,0.0324,0.013523,0.002678,0.000431,0.001645
4629000,0.0324,0.013523,0.002678,0.000431,0.001175
4630000,0.0324,0.013523,0.002678,0.000431,0.001410
4631000,0.0324,0.013523,0.002678,0.000431,0.001410
4632000,0.0324,0.013523,0.002678,0.000431,0.001410
4633000,0.0324,0.013523,0.002678,0.000431,0.001410
4634000,0.0324,0.013523,0.002678,0.000431,0.001410
4635000,0.0324,0.013523,0.002678,0.000431,0.001410
4636000,0.0324,0.013523,0.002678,0.000431,0.001410
4637000,0.0324,0.013523,0.002678,0.000431,0.001528
4638000,0.0324,0.013523,0.002678,0.000431,0.001528
4639000,0.0324,0.013523,0.002678,0.000431,0.001410
4640000,0.0324,0.013523,0.002678,0.000431,0.001410
4641000,0.0324,0.013523,0.002678,0.000431,0.001645
4642000,0.0324,0.013523,0.002678,0.000431,0.001410
4643000,0.0324,0.013523,0.002678,0.000431,0.001293
4644000,0.0324,0.013523,0.002678,0.000431,0.001410
4645000,0.0324,0.013523,0.002678,0.000431,0.001645
4646000,0.0324,0.013523,0.002678,0.000431,0.001410
4647000,0.0324,0.013523,0.002678,0.000431,0.001410
4648000,0.0324,0.013523,0.002678,0.000431,0.001410
4649000,0.0324,0.013523,0.002678,0.000431,0.001293
4650000,0.0324,0.013523,0.002678,0.000431,0.001528
4651000,0.0324,0.013523,0.002678,0.000431,0.001410
4652000,0.0324,0.013523,0.002678,0.000431,0.001058
4653000,0.0324,0.013523,0.002678,0.000431,0.001410
4654000,0.0324,0.013523,0.002678,0.000431,0.001410
4655000,0.0324,0.013523,0.002678,0.000431,0.001410
4656000,0.0324,0.013523,0.002678,0.000431,0.001410
4657000,0.0324,0.013523,0.002678,0.000431,0.001410
4658000,0.0324,0.013523,0.002678,0.000431,0.001175
4659000,0.0324,0.013523,0.002678,0.000431,0.001410
4660000,0.0324,0.013523,0.002678,0.000431,0.001410
4661000,0.0324,0.013523,0.002678,0.000431,0.001175
4662000,0.0324,0.013523,0.002678,0.000431,0.001528
4663000,0.0324,0.013523,0.002678,0.000431,0.001528
4664000,0.0324,0.013523,0.002678,0.000431,0.001410
4665000,0.0324,0.013523,0.002678,0.000431,0.001410
4666000,0.0324,0.013523,0.002678,0.000431,0.001410
4667000,0.0324,0.013523,0.002678,0.000431,0.001528
4668000,0.0324,0.013523,0.002678,0.000431,0.001410
4669000,0.0324,0.013523,0.002678,0.000431,0.001058
4670000,0.0324,0.013523,0.002678,0.000431,0.001410
4671000,0.0324,0.013523,0.002678,0.000431,0.001528
4672000,0.0324,0.013523,0.002678,0.000431,0.001528
4673000,0.0324,0.013523,0.002678,0.000431,0.001528
4674000,0.0324,0.013523,0.002678,0.000431,0.001528
4675000,0.0324,0.013523,0.002678,0.000431,0.001410
4676000,0.0324,0.013523,0.002678,0.000431,0.001410
4677000,0.0324,0.013523,0.002678,0.000431,0.001410
4678000,0.0324,0.013523,0.002678,0.000431,0.001293
4679000,0.0324,0.013523,0.002678,0.000431,0.001410
4680000,0.0324,0.013523,0.002678,0.000431,0.001058
4681000,0.0324,0.013523,0.002678,0.000431,0.001410
4682000,0.0324,0.013523,0.002678,0.000431,0.001410
4683000,0.0324,0.013523,0.002678,0.000431,0.001410
4684000,0.0324,0.013523,0.002678,0.000431,0.001528
4685000,0.0324,0.013523,0.002678,0.000431,0.001410
4686000,0.0324,0.013523,0.002678,0.000431,0.001410
4687000,0.0324,0.013523,0.002678,0.000431,0.001528
4688000,0.0324,0.013523,0.002678,0.000431,0.001410
4689000,0.0324,0.013523,0.002678,0.000431,0.001293
4690000,0.0324,0.013523,0.002678,0.000431,0.001528
4691000,0.0324,0.013523,0.002678,0.000431,0.001293
4692000,0.0324,0.013523,0.002678,0.000431,0.001763
4693000,0.0324,0.013523,0.002678,0.000431,0.000705
4694000,0.0324,0.013523,0.002678,0.000431,0.000823
4695000,0.0324,0.013523,0.002678,0.000431,0.000705
4696000,0.0324,0.013523,0.002678,0.000431,0.000705
4697000,0.0324,0.013523,0.002678,0.000431,0.000588
4698000,0.0324,0.013523,0.002678,0.000431,0.000823
4699000,0.0324,0.013523,0.002678,0.000431,0.000705
4700000,0.0324,0.013523,0.002678,0.000431,0.000705
4701000,0.0324,0.013523,0.002678,0.000431,0.000705
4702000,0.0324,0.013523,0.002678,0.000431,0.000588
4703000,0.0324,0.013523,0.002678,0.000431,0.000823
4704000,0.0324,0.013523,0.002678,0.000431,0.000705
4705000,0.0324,0.013523,0.002678,0.000431,0.000823
4706000,0.0324,0.013523,0.002678,0.000431,0.000588
4707000,0.0324,0.013523,0.002678,0.000431,0.000705
4708000,0.0324,0.013523,0.002678,0.000431,0.000705
4709000,0.0324,0.013523,0.002678,0.000431,0.000705
4710000,0.0324,0.013523,0.002678,0.000431,0.000705
4711000,0.0324,0.013523,0.002678,0.000431,0.000823
4712000,0.0324,0.013523,0.002678,0.000431,0.000705
4713000,0.0324,0.013523,0.002678,0.000431,0.000823
4714000,0.0324,0.013523,0.002678,0.000431,0.000705
4715000,0.0324,0.013523,0.002678,0.000431,0.000588
4716000,0.0324,0.013523,0.002678,0.000431,0.000588
4717000,0.0324,0.013523,0.002678,0.000431,0.000705
4718000,0.0324,0.013523,0.002678,0.000431,0.000705
4719000,0.0324,0.013523,0.002678,0.000431,0.000705
4720000,0.0324,0.013523,0.002678,0.000431,0.000705
4721000,0.0324,0.013523,0.002678,0.000431,0.000588
4722000,0.0324,0.013523,0.002678,0.000431,0.000823
4723000,0.0324,0.013523,0.002678,0.000431,0.000705
4724000,0.0324,0.013523,0.002678,0.000431,0.000588
4725000,0.0324,0.013523,0.002678,0.000431,0.000705
4726000,0.0324,0.013523,0.002678,0.000431,0.000588
4727000,0.0324,0.013523,0.002678,0.000431,0.000823
4728000,0.0324,0.013523,0.002678,0.000431,0.000588
4729000,0.0324,0.013523,0.002678,0.000431,0.000823
4730000,0.0324,0.013523,0.002678,0.000431,0.000588
4731000,0.0324,0.013523,0.002678,0.000431,0.000823
4732000,0.0324,0.013523,0.002678,0.000431,0.000823
4733000,0.0324,0.013523,0.002678,0.000431,0.000588
4734000,0.0324,0.013523,0.002678,0.000431,0.000823
4735000,0.0324,0.013523,0.002678,0.000431,0.000470
4736000,0.0324,0.013523,0.002678,0.000431,0.000705
4737000,0.0324,0.013523,0.002678,0.000431,0.000705
4738000,0.0324,0.013523,0.002678,0.000431,0.000705
4739000,0.0324,0.013523,0.002678,0.000431,0.000705
4740000,0.0324,0.013523,0.002678,0.000431,0.000823
4741000,0.0324,0.013523,0.002678,0.000431,0.000705
4742000,0.0324,0.013523,0.002678,0.000431,0.000705
4743000,0.0324,0.013523,0.002678,0.000431,0.000588
4744000,0.0324,0.013523,0.002678,0.000431,0.000705
4745000,0.0324,0.013523,0.002678,0.000431,0.000705
4746000,0.0324,0.013523,0.002678,0.000431,0.000705
4747000,0.0324,0.013523,0.002678,0.000431,0.000705
4748000,0.0324,0.013523,0.002678,0.000431,0.000705
4749000,0.0324,0.013523,0.002678,0.000431,0.000705
4750000,0.0324,0.013523,0.002678,0.000431,0.000705
4751000,0.0324,0.013523,0.002678,0.000431,0.000588
4752000,0.0324,0.013523,0.002678,0.000431,0.000705
4753000,0.0324,0.013523,0.002678,0.000431,0.000823
4754000,0.0324,0.013523,0.002678,0.000431,0.000705
4755000,0.0324,0.013523,0.002678,0.000431,0.000705
4756000,0.0324,0.013523,0.002678,0.000431,0.000705
4757000,0.0324,0.013523,0.002678,0.000431,0.000705
4758000,0.0324,0.013523,0.002678,0.000431,0.000823
4759000,0.0324,0.013523,0.002678,0.000431,0.000705
4760000,0.0324,0.013523,0.002678,0.000431,0.000705
4761000,0.0324,0.013523,0.002678,0.000431,0.000823
4762000,0.0324,0.013523,0.002678,0.000431,0.000705
4763000,0.0324,0.013523,0.002678,0.000431,0.000705
4764000,0.0324,0.013523,0.002678,0.000431,0.000705
4765000,0.0324,0.013523,0.002678,0.000431,0.000705
4766000,0.0324,0.013523,0.002678,0.000431,0.000705
4767000,0.0324,0.013523,0.002678,0.000431,0.000705
4768000,0.0324,0.013523,0.002678,0.000431,0.000823
4769000,0.0324,0.013523,0.002678,0.000431,0.000705
4770000,0.0324,0.013523,0.002678,0.000431,0.000588
4771000,0.0324,0.013523,0.002678,0.000431,0.000823
4772000,0.0324,0.013523,0.002678,0.000431,0.000705
4773000,0.0324,0.013523,0.002678,0.000431,0.000823
4774000,0.0324,0.013523,0.002678,0.000431,0.000470
4775000,0.0324,0.013523,0.002678,0.000431,0.000705
4776000,0.0324,0.013523,0.002678,0.000431,0.000705
4777000,0.0324,0.013523,0.002678,0.000431,0.000823
4778000,0.0324,0.013523,0.002678,0.000431,0.000588
4779000,0.0324,0.013523,0.002678,0.000431,0.000705
4780000,0.0324,0.013523,0.002678,0.000431,0.000823
4781000,0.0324,0.013523,0.002678,0.000431,0.000823
4782000,0.0324,0.013523,0.002678,0.000431,0.000705
4783000,0.0324,0.013523,0.002678,0.000431,0.000705
4784000,0.0324,0.013523,0.002678,0.000431,0.000705
4785000,0.0324,0.013523,0.002678,0.000431,0.000940
4786000,0.0324,0.013523,0.002678,0.000431,0.000588
4787000,0.0324,0.013523,0.002678,0.000431,0.000588
4788000,0.0324,0.013523,0.002678,0.000431,0.000940
4789000,0.0324,0.013523,0.002678,0.000431,0.000705
4790000,0.0324,0.013523,0.002678,0.000431,0.000705
4791000,0.0324,0.013523,0.002678,0.000431,0.000705
4792000,0.0324,0.013523,0.002678,0.000431,0.000823
4793000,0.0324,0.013523,0.002678,0.000431,0.000705
4794000,0.0324,0.013523,0.002678,0.000431,0.000705
4795000,0.0324,0.013523,0.002678,0.000431,0.000588
4796000,0.0324,0.013523,0.002678,0.000431,0.000705
4797000,0.0324,0.013523,0.002678,0.000431,0.000705
4798000,0.0324,0.013523,0.002678,0.000431,0.000705
4799000,0.0324,0.013523,0.002678,0.000431,0.000823
4800000,0.0324,0.013523,0.002678,0.000431,0.000823
4801000,0.0324,0.013523,0.002678,0.000431,0.000705
4802000,0.0324,0.013523,0.002678,0.000431,0.000705
4803000,0.0324,0.013523,0.002678,0.000431,0.000588
4804000,0.0324,0.013523,0.002678,0.000431,0.000588
4805000,0.0324,0.013523,0.002678,0.000431,0.000705
4806000,0.0324,0.013523,0.002678,0.000431,0.000823
4807000,0.0324,0.013523,0.002678,0.000431,0.000823
4808000,0.0324,0.013523,0.002678,0.000431,0.000705
4809000,0.0324,0.013523,0.002678,0.000431,0.000705
4810000,0.0324,0.013523,0.002678,0.000431,0.000705
4811000,0.0324,0.013523,0.002678,0.000431,0.000705
4812000,0.0324,0.013523,0.002678,0.000431,0.000705
4813000,0.0324,0.013523,0.002678,0.000431,0.000705
4814000,0.0324,0.013523,0.002678,0.000431,0.000823
4815000,0.0324,0.013523,0.002678,0.000431,0.000588
4816000,0.0324,0.013523,0.002678,0.000431,0.000705
4817000,0.0324,0.013523,0.002678,0.000431,0.000823
4818000,0.0324,0.013523,0.002678,0.000431,0.000705
4819000,0.0324,0.013523,0.002678,0.000431,0.000823
4820000,0.0324,0.013523,0.002678,0.000431,0.000705
4821000,0.0324,0.013523,0.002678,0.000431,0.000823
4822000,0.0324,0.013523,0.002678,0.000431,0.000823
4823000,0.0324,0.013523,0.002678,0.000431,0.000470
4824000,0.0324,0.013523,0.002678,0.000431,0.000705
4825000,0.0324,0.013523,0.002678,0.000431,0.000705
4826000,0.0324,0.013523,0.002678,0.000431,0.000705
4827000,0.0324,0.013523,0.002678,0.000431,0.000705
4828000,0.0324,0.013523,0.002678,0.000431,0.000705
4829000,0.0324,0.013523,0.002678,0.000431,0.000823
4830000,0.0324,0.013523,0.002678,0.000431,0.000823
4831000,0.0324,0.013523,0.002678,0.000431,0.000705
4832000,0.0324,0.013523,0.002678,0.000431,0.000588
4833000,0.0324,0.013523,0.002678,0.000431,0.000823
4834000,0.0324,0.013523,0.002678,0.000431,0.000705
4835000,0.0324,0.013523,0.002678,0.000431,0.000705
4836000,0.0324,0.013523,0.002678,0.000431,0.000705
4837000,0.0324,0.013523,0.002678,0.000431,0.000705
4838000,0.0324,0.013523,0.002678,0.000431,0.000705
4839000,0.0324,0.013523,0.002678,0.000431,0.000705
4840000,0.0324,0.013523,0.002678,0.000431,0.000705
4841000,0.0324,0.013523,0.002678,0.000431,0.000705
4842000,0.0324,0.013523,0.002678,0.000431,0.000588
4843000,0.0324,0.013523,0.002678,0.000431,0.000823
4844000,0.0324,0.013523,0.002678,0.000431,0.000705
4845000,0.0324,0.013523,0.002678,0.000431,0.000823
4846000,0.0324,0.013523,0.002678,0.000431,0.000588
4847000,0.0324,0.013523,0.002678,0.000431,0.000823
4848000,0.0324,0.013523,0.002678,0.000431,0.000823
4849000,0.0324,0.013523,0.002678,0.000431,0.000705
4850000,0.0324,0.013523,0.002678,0.000431,0.000588
4851000,0.0324,0.013523,0.002678,0.000431,0.000705
4852000,0.0324,0.013523,0.002678,0.000431,0.000705
4853000,0.0324,0.013523,0.002678,0.000431,0.000705
4854000,0.0324,0.013523,0.002678,0.000431,0.000705
4855000,0.0324,0.013523,0.002678,0.000431,0.000705
4856000,0.0324,0.013523,0.002678,0.000431,0.000823
4857000,0.0324,0.013523,0.002678,0.000431,0.000705
4858000,0.0324,0.013523,0.002678,0.000431,0.000588
4859000,0.0324,0.013523,0.002678,0.000431,0.000823
4860000,0.0324,0.013523,0.002678,0.000431,0.000705
4861000,0.0324,0.013523,0.002678,0.000431,0.000705
4862000,0.0324,0.013523,0.002678,0.000431,0.000705
4863000,0.0324,0.013523,0.002678,0.000431,0.000705
4864000,0.0324,0.013523,0.002678,0.000431,0.000705
4865000,0.0324,0.013523,0.002678,0.000431,0.000705
4866000,0.0324,0.013523,0.002678,0.000431,0.000705
4867000,0.0324,0.013523,0.002678,0.000431,0.000940
4868000,0.0324,0.013523,0.002678,0.000431,0.000705
4869000,0.0324,0.013523,0.002678,0.000431,0.000705
4870000,0.0324,0.013523,0.002678,0.000431,0.000705
4871000,0.0324,0.013523,0.002678,0.000431,0.000705
4872000,0.0324,0.013523,0.002678,0.000431,0.000705
4873000,0.0324,0.013523,0.002678,0.000431,0.000588
4874000,0.0324,0.013523,0.002678,0.000431,0.000705
4875000,0.0324,0.013523,0.002678,0.000431,0.000705
4876000,0.0324,0.013523,0.002678,0.000431,0.000823
4877000,0.0324,0.013523,0.002678,0.000431,0.000705
4878000,0.0324,0.013523,0.002678,0.000431,0.000823
4879000,0.0324,0.013523,0.002678,0.000431,0.000823
4880000,0.0324,0.013523,0.002678,0.000431,0.000470
4881000,0.0324,0.013523,0.002678,0.000431,0.000823
4882000,0.0324,0.013523,0.002678,0.000431,0.000823
4883000,0.0324,0.013523,0.002678,0.000431,0.000705
4884000,0.0324,0.013523,0.002678,0.000431,0.000705
4885000,0.0324,0.013523,0.002678,0.000431,0.000705
4886000,0.0324,0.013523,0.002678,0.000431,0.000823
4887000,0.0324,0.013523,0.002678,0.000431,0.000823
4888000,0.0324,0.013523,0.002678,0.000431,0.000705
4889000,0.0324,0.013523,0.002678,0.000431,0.000705
4890000,0.0324,0.013523,0.002678,0.000431,0.000705
4891000,0.0324,0.013523,0.002678,0.000431,0.000705
4892000,0.0324,0.013523,0.002678,0.000431,0.000588
4893000,0.0324,0.013523,0.002678,0.000431,0.000705
4894000,0.0324,0.013523,0.002678,0.000431,0.000823
4895000,0.0324,0.013523,0.002678,0.000431,0.000705
4896000,0.0324,0.013523,0.002678,0.000431,0.000823
4897000,0.0324,0.013523,0.002678,0.000431,0.000588
4898000,0.0324,0.013523,0.002678,0.000431,0.000940
4899000,0.0324,0.013523,0.002678,0.000431,0.000588
4900000,0.0324,0.013523,0.002678,0.000431,0.000705
4901000,0.0324,0.013523,0.002678,0.000431,0.000588
4902000,0.0324,0.013523,0.002678,0.000431,0.000705
4903000,0.0324,0.013523,0.002678,0.000431,0.000705
4904000,0.0324,0.013523,0.002678,0.000431,0.000705
4905000,0.0324,0.013523,0.002678,0.000431,0.000705
4906000,0.0324,0.013523,0.002678,0.000431,0.000823
4907000,0.0324,0.013523,0.002678,0.000431,0.000823
4908000,0.0324,0.013523,0.002678,0.000431,0.000588
4909000,0.0324,0.013523,0.002678,0.000431,0.000705
4910000,0.0324,0.013523,0.002678,0.000431,0.000823
4911000,0.0324,0.013523,0.002678,0.000431,0.000470
4912000,0.0324,0.013523,0.002678,0.000431,0.000823
4913000,0.0324,0.013523,0.002678,0.000431,0.000823
4914000,0.0324,0.013523,0.002678,0.000431,0.000705
4915000,0.0324,0.013523,0.002678,0.000431,0.000705
4916000,0.0324,0.013523,0.002678,0.000431,0.000705
4917000,0.0324,0.013523,0.002678,0.000431,0.000823
4918000,0.0324,0.013523,0.002678,0.000431,0.000588
4919000,0.0324,0.013523,0.002678,0.000431,0.000823
4920000,0.0324,0.013523,0.002678,0.000431,0.000705
4921000,0.0324,0.013523,0.002678,0.000431,0.000588
4922000,0.0324,0.013523,0.002678,0.000431,0.000823
4923000,0.0324,0.013523,0.002678,0.000431,0.000705
4924000,0.0324,0.013523,0.002678,0.000431,0.000588
4925000,0.0324,0.013523,0.002678,0.000431,0.000823
