Cycle,Area(mm^2),PeakDynamic(W),SubthresholdLeakage(W),GateLeakage(W),RunTimeDynamic(W)
3000000,0.0324,0.013523,0.002678,0.000431,0.002468
3001000,0.0324,0.013523,0.002678,0.000431,0.002468
3002000,0.0324,0.013523,0.002678,0.000431,0.001763
3003000,0.0324,0.013523,0.002678,0.000431,0.002468
3004000,0.0324,0.013523,0.002678,0.000431,0.002351
3005000,0.0324,0.013523,0.002678,0.000431,0.002586
3006000,0.0324,0.013523,0.002678,0.000431,0.002703
3007000,0.0324,0.013523,0.002678,0.000431,0.002468
3008000,0.0324,0.013523,0.002678,0.000431,0.002351
3009000,0.0324,0.013523,0.002678,0.000431,0.002351
3010000,0.0324,0.013523,0.002678,0.000431,0.002586
3011000,0.0324,0.013523,0.002678,0.000431,0.003056
3012000,0.0324,0.013523,0.002678,0.000431,0.002821
3013000,0.0324,0.013523,0.002678,0.000431,0.002468
3014000,0.0324,0.013523,0.002678,0.000431,0.002703
3015000,0.0324,0.013523,0.002678,0.000431,0.002703
3016000,0.0324,0.013523,0.002678,0.000431,0.002586
3017000,0.0324,0.013523,0.002678,0.000431,0.002703
3018000,0.0324,0.013523,0.002678,0.000431,0.002233
3019000,0.0324,0.013523,0.002678,0.000431,0.002468
3020000,0.0324,0.013523,0.002678,0.000431,0.002468
3021000,0.0324,0.013523,0.002678,0.000431,0.002938
3022000,0.0324,0.013523,0.002678,0.000431,0.002586
3023000,0.0324,0.013523,0.002678,0.000431,0.002116
3024000,0.0324,0.013523,0.002678,0.000431,0.002821
3025000,0.0324,0.013523,0.002678,0.000431,0.002233
3026000,0.0324,0.013523,0.002678,0.000431,0.002233
3027000,0.0324,0.013523,0.002678,0.000431,0.002703
3028000,0.0324,0.013523,0.002678,0.000431,0.002468
3029000,0.0324,0.013523,0.002678,0.000431,0.002116
3030000,0.0324,0.013523,0.002678,0.000431,0.002233
3031000,0.0324,0.013523,0.002678,0.000431,0.002703
3032000,0.0324,0.013523,0.002678,0.000431,0.002233
3033000,0.0324,0.013523,0.002678,0.000431,0.002351
3034000,0.0324,0.013523,0.002678,0.000431,0.002586
3035000,0.0324,0.013523,0.002678,0.000431,0.002468
3036000,0.0324,0.013523,0.002678,0.000431,0.002351
3037000,0.0324,0.013523,0.002678,0.000431,0.001998
3038000,0.0324,0.013523,0.002678,0.000431,0.002233
3039000,0.0324,0.013523,0.002678,0.000431,0.002233
3040000,0.0324,0.013523,0.002678,0.000431,0.002351
3041000,0.0324,0.013523,0.002678,0.000431,0.002233
3042000,0.0324,0.013523,0.002678,0.000431,0.002351
3043000,0.0324,0.013523,0.002678,0.000431,0.002233
3044000,0.0324,0.013523,0.002678,0.000431,0.002586
3045000,0.0324,0.013523,0.002678,0.000431,0.002468
3046000,0.0324,0.013523,0.002678,0.000431,0.002351
3047000,0.0324,0.013523,0.002678,0.000431,0.002468
3048000,0.0324,0.013523,0.002678,0.000431,0.002233
3049000,0.0324,0.013523,0.002678,0.000431,0.002351
3050000,0.0324,0.013523,0.002678,0.000431,0.002233
3051000,0.0324,0.013523,0.002678,0.000431,0.002586
3052000,0.0324,0.013523,0.002678,0.000431,0.002351
3053000,0.0324,0.013523,0.002678,0.000431,0.002586
3054000,0.0324,0.013523,0.002678,0.000431,0.002468
3055000,0.0324,0.013523,0.002678,0.000431,0.002468
3056000,0.0324,0.013523,0.002678,0.000431,0.002821
3057000,0.0324,0.013523,0.002678,0.000431,0.002586
3058000,0.0324,0.013523,0.002678,0.000431,0.002468
3059000,0.0324,0.013523,0.002678,0.000431,0.002821
3060000,0.0324,0.013523,0.002678,0.000431,0.002233
3061000,0.0324,0.013523,0.002678,0.000431,0.002821
3062000,0.0324,0.013523,0.002678,0.000431,0.002821
3063000,0.0324,0.013523,0.002678,0.000431,0.002351
3064000,0.0324,0.013523,0.002678,0.000431,0.002351
3065000,0.0324,0.013523,0.002678,0.000431,0.002351
3066000,0.0324,0.013523,0.002678,0.000431,0.002586
3067000,0.0324,0.013523,0.002678,0.000431,0.002233
3068000,0.0324,0.013523,0.002678,0.000431,0.002821
3069000,0.0324,0.013523,0.002678,0.000431,0.002468
3070000,0.0324,0.013523,0.002678,0.000431,0.002586
3071000,0.0324,0.013523,0.002678,0.000431,0.001998
3072000,0.0324,0.013523,0.002678,0.000431,0.002703
3073000,0.0324,0.013523,0.002678,0.000431,0.002586
3074000,0.0324,0.013523,0.002678,0.000431,0.001998
3075000,0.0324,0.013523,0.002678,0.000431,0.002821
3076000,0.0324,0.013523,0.002678,0.000431,0.002468
3077000,0.0324,0.013523,0.002678,0.000431,0.002351
3078000,0.0324,0.013523,0.002678,0.000431,0.002468
3079000,0.0324,0.013523,0.002678,0.000431,0.002703
3080000,0.0324,0.013523,0.002678,0.000431,0.002351
3081000,0.0324,0.013523,0.002678,0.000431,0.002116
3082000,0.0324,0.013523,0.002678,0.000431,0.001998
3083000,0.0324,0.013523,0.002678,0.000431,0.001998
3084000,0.0324,0.013523,0.002678,0.000431,0.002938
3085000,0.0324,0.013523,0.002678,0.000431,0.002821
3086000,0.0324,0.013523,0.002678,0.000431,0.002821
3087000,0.0324,0.013523,0.002678,0.000431,0.002586
3088000,0.0324,0.013523,0.002678,0.000431,0.002703
3089000,0.0324,0.013523,0.002678,0.000431,0.002586
3090000,0.0324,0.013523,0.002678,0.000431,0.002586
3091000,0.0324,0.013523,0.002678,0.000431,0.002468
3092000,0.0324,0.013523,0.002678,0.000431,0.002821
3093000,0.0324,0.013523,0.002678,0.000431,0.002351
3094000,0.0324,0.013523,0.002678,0.000431,0.001880
3095000,0.0324,0.013523,0.002678,0.000431,0.002703
3096000,0.0324,0.013523,0.002678,0.000431,0.002703
3097000,0.0324,0.013523,0.002678,0.000431,0.002703
3098000,0.0324,0.013523,0.002678,0.000431,0.002468
3099000,0.0324,0.013523,0.002678,0.000431,0.002586
3100000,0.0324,0.013523,0.002678,0.000431,0.002821
3101000,0.0324,0.013523,0.002678,0.000431,0.003056
3102000,0.0324,0.013523,0.002678,0.000431,0.002703
3103000,0.0324,0.013523,0.002678,0.000431,0.002468
3104000,0.0324,0.013523,0.002678,0.000431,0.002703
3105000,0.0324,0.013523,0.002678,0.000431,0.002821
3106000,0.0324,0.013523,0.002678,0.000431,0.002586
3107000,0.0324,0.013523,0.002678,0.000431,0.002586
3108000,0.0324,0.013523,0.002678,0.000431,0.002703
3109000,0.0324,0.013523,0.002678,0.000431,0.002821
3110000,0.0324,0.013523,0.002678,0.000431,0.002351
3111000,0.0324,0.013523,0.002678,0.000431,0.003056
3112000,0.0324,0.013523,0.002678,0.000431,0.001880
3113000,0.0324,0.013523,0.002678,0.000431,0.003173
3114000,0.0324,0.013523,0.002678,0.000431,0.002233
3115000,0.0324,0.013523,0.002678,0.000431,0.003291
3116000,0.0324,0.013523,0.002678,0.000431,0.002703
3117000,0.0324,0.013523,0.002678,0.000431,0.002703
3118000,0.0324,0.013523,0.002678,0.000431,0.003173
3119000,0.0324,0.013523,0.002678,0.000431,0.002351
3120000,0.0324,0.013523,0.002678,0.000431,0.002586
3121000,0.0324,0.013523,0.002678,0.000431,0.002586
3122000,0.0324,0.013523,0.002678,0.000431,0.002703
3123000,0.0324,0.013523,0.002678,0.000431,0.002351
3124000,0.0324,0.013523,0.002678,0.000431,0.002233
3125000,0.0324,0.013523,0.002678,0.000431,0.002233
3126000,0.0324,0.013523,0.002678,0.000431,0.001998
3127000,0.0324,0.013523,0.002678,0.000431,0.002586
3128000,0.0324,0.013523,0.002678,0.000431,0.002586
3129000,0.0324,0.013523,0.002678,0.000431,0.002233
3130000,0.0324,0.013523,0.002678,0.000431,0.002586
3131000,0.0324,0.013523,0.002678,0.000431,0.002351
3132000,0.0324,0.013523,0.002678,0.000431,0.002586
3133000,0.0324,0.013523,0.002678,0.000431,0.002233
3134000,0.0324,0.013523,0.002678,0.000431,0.002351
3135000,0.0324,0.013523,0.002678,0.000431,0.002233
3136000,0.0324,0.013523,0.002678,0.000431,0.002116
3137000,0.0324,0.013523,0.002678,0.000431,0.002233
3138000,0.0324,0.013523,0.002678,0.000431,0.002351
3139000,0.0324,0.013523,0.002678,0.000431,0.002468
3140000,0.0324,0.013523,0.002678,0.000431,0.002703
3141000,0.0324,0.013523,0.002678,0.000431,0.001998
3142000,0.0324,0.013523,0.002678,0.000431,0.002233
3143000,0.0324,0.013523,0.002678,0.000431,0.002586
3144000,0.0324,0.013523,0.002678,0.000431,0.002351
3145000,0.0324,0.013523,0.002678,0.000431,0.002586
3146000,0.0324,0.013523,0.002678,0.000431,0.002233
3147000,0.0324,0.013523,0.002678,0.000431,0.002233
3148000,0.0324,0.013523,0.002678,0.000431,0.001998
3149000,0.0324,0.013523,0.002678,0.000431,0.002233
3150000,0.0324,0.013523,0.002678,0.000431,0.002351
3151000,0.0324,0.013523,0.002678,0.000431,0.001763
3152000,0.0324,0.013523,0.002678,0.000431,0.002703
3153000,0.0324,0.013523,0.002678,0.000431,0.002468
3154000,0.0324,0.013523,0.002678,0.000431,0.002586
3155000,0.0324,0.013523,0.002678,0.000431,0.002586
3156000,0.0324,0.013523,0.002678,0.000431,0.002351
3157000,0.0324,0.013523,0.002678,0.000431,0.002351
3158000,0.0324,0.013523,0.002678,0.000431,0.002821
3159000,0.0324,0.013523,0.002678,0.000431,0.002233
3160000,0.0324,0.013523,0.002678,0.000431,0.001763
3161000,0.0324,0.013523,0.002678,0.000431,0.002703
3162000,0.0324,0.013523,0.002678,0.000431,0.002233
3163000,0.0324,0.013523,0.002678,0.000431,0.002351
3164000,0.0324,0.013523,0.002678,0.000431,0.002351
3165000,0.0324,0.013523,0.002678,0.000431,0.002586
3166000,0.0324,0.013523,0.002678,0.000431,0.002116
3167000,0.0324,0.013523,0.002678,0.000431,0.002233
3168000,0.0324,0.013523,0.002678,0.000431,0.002468
3169000,0.0324,0.013523,0.002678,0.000431,0.002468
3170000,0.0324,0.013523,0.002678,0.000431,0.002468
3171000,0.0324,0.013523,0.002678,0.000431,0.002116
3172000,0.0324,0.013523,0.002678,0.000431,0.002703
3173000,0.0324,0.013523,0.002678,0.000431,0.002468
3174000,0.0324,0.013523,0.002678,0.000431,0.002468
3175000,0.0324,0.013523,0.002678,0.000431,0.002586
3176000,0.0324,0.013523,0.002678,0.000431,0.002116
3177000,0.0324,0.013523,0.002678,0.000431,0.002586
3178000,0.0324,0.013523,0.002678,0.000431,0.002233
3179000,0.0324,0.013523,0.002678,0.000431,0.002703
3180000,0.0324,0.013523,0.002678,0.000431,0.002233
3181000,0.0324,0.013523,0.002678,0.000431,0.002468
3182000,0.0324,0.013523,0.002678,0.000431,0.002586
3183000,0.0324,0.013523,0.002678,0.000431,0.002351
3184000,0.0324,0.013523,0.002678,0.000431,0.002703
3185000,0.0324,0.013523,0.002678,0.000431,0.002233
3186000,0.0324,0.013523,0.002678,0.000431,0.002703
3187000,0.0324,0.013523,0.002678,0.000431,0.002821
3188000,0.0324,0.013523,0.002678,0.000431,0.002821
3189000,0.0324,0.013523,0.002678,0.000431,0.002703
3190000,0.0324,0.013523,0.002678,0.000431,0.002233
3191000,0.0324,0.013523,0.002678,0.000431,0.002821
3192000,0.0324,0.013523,0.002678,0.000431,0.002703
3193000,0.0324,0.013523,0.002678,0.000431,0.002468
3194000,0.0324,0.013523,0.002678,0.000431,0.002468
3195000,0.0324,0.013523,0.002678,0.000431,0.002468
3196000,0.0324,0.013523,0.002678,0.000431,0.001880
3197000,0.0324,0.013523,0.002678,0.000431,0.002468
3198000,0.0324,0.013523,0.002678,0.000431,0.002586
3199000,0.0324,0.013523,0.002678,0.000431,0.002233
3200000,0.0324,0.013523,0.002678,0.000431,0.002468
3201000,0.0324,0.013523,0.002678,0.000431,0.002468
3202000,0.0324,0.013523,0.002678,0.000431,0.002821
3203000,0.0324,0.013523,0.002678,0.000431,0.002821
3204000,0.0324,0.013523,0.002678,0.000431,0.002703
3205000,0.0324,0.013523,0.002678,0.000431,0.002586
3206000,0.0324,0.013523,0.002678,0.000431,0.002351
3207000,0.0324,0.013523,0.002678,0.000431,0.002703
3208000,0.0324,0.013523,0.002678,0.000431,0.002703
3209000,0.0324,0.013523,0.002678,0.000431,0.002703
3210000,0.0324,0.013523,0.002678,0.000431,0.002116
3211000,0.0324,0.013523,0.002678,0.000431,0.003173
3212000,0.0324,0.013523,0.002678,0.000431,0.002586
3213000,0.0324,0.013523,0.002678,0.000431,0.002351
3214000,0.0324,0.013523,0.002678,0.000431,0.002821
3215000,0.0324,0.013523,0.002678,0.000431,0.002116
3216000,0.0324,0.013523,0.002678,0.000431,0.002233
3217000,0.0324,0.013523,0.002678,0.000431,0.002233
3218000,0.0324,0.013523,0.002678,0.000431,0.002468
3219000,0.0324,0.013523,0.002678,0.000431,0.002116
3220000,0.0324,0.013523,0.002678,0.000431,0.002586
3221000,0.0324,0.013523,0.002678,0.000431,0.002821
3222000,0.0324,0.013523,0.002678,0.000431,0.002116
3223000,0.0324,0.013523,0.002678,0.000431,0.002586
3224000,0.0324,0.013523,0.002678,0.000431,0.002586
3225000,0.0324,0.013523,0.002678,0.000431,0.002351
3226000,0.0324,0.013523,0.002678,0.000431,0.002233
3227000,0.0324,0.013523,0.002678,0.000431,0.002468
3228000,0.0324,0.013523,0.002678,0.000431,0.001998
3229000,0.0324,0.013523,0.002678,0.000431,0.002468
3230000,0.0324,0.013523,0.002678,0.000431,0.002821
3231000,0.0324,0.013523,0.002678,0.000431,0.002586
3232000,0.0324,0.013523,0.002678,0.000431,0.002116
3233000,0.0324,0.013523,0.002678,0.000431,0.002821
3234000,0.0324,0.013523,0.002678,0.000431,0.002351
3235000,0.0324,0.013523,0.002678,0.000431,0.002116
3236000,0.0324,0.013523,0.002678,0.000431,0.002351
3237000,0.0324,0.013523,0.002678,0.000431,0.002468
3238000,0.0324,0.013523,0.002678,0.000431,0.002351
3239000,0.0324,0.013523,0.002678,0.000431,0.002351
3240000,0.0324,0.013523,0.002678,0.000431,0.002703
3241000,0.0324,0.013523,0.002678,0.000431,0.002233
3242000,0.0324,0.013523,0.002678,0.000431,0.003056
3243000,0.0324,0.013523,0.002678,0.000431,0.002233
3244000,0.0324,0.013523,0.002678,0.000431,0.002351
3245000,0.0324,0.013523,0.002678,0.000431,0.002468
3246000,0.0324,0.013523,0.002678,0.000431,0.002351
3247000,0.0324,0.013523,0.002678,0.000431,0.002468
3248000,0.0324,0.013523,0.002678,0.000431,0.002703
3249000,0.0324,0.013523,0.002678,0.000431,0.002468
3250000,0.0324,0.013523,0.002678,0.000431,0.002938
3251000,0.0324,0.013523,0.002678,0.000431,0.002351
3252000,0.0324,0.013523,0.002678,0.000431,0.002586
3253000,0.0324,0.013523,0.002678,0.000431,0.002351
3254000,0.0324,0.013523,0.002678,0.000431,0.002116
3255000,0.0324,0.013523,0.002678,0.000431,0.001998
3256000,0.0324,0.013523,0.002678,0.000431,0.002938
3257000,0.0324,0.013523,0.002678,0.000431,0.002233
3258000,0.0324,0.013523,0.002678,0.000431,0.002351
3259000,0.0324,0.013523,0.002678,0.000431,0.002116
3260000,0.0324,0.013523,0.002678,0.000431,0.002351
3261000,0.0324,0.013523,0.002678,0.000431,0.002233
3262000,0.0324,0.013523,0.002678,0.000431,0.002468
3263000,0.0324,0.013523,0.002678,0.000431,0.002233
3264000,0.0324,0.013523,0.002678,0.000431,0.002351
3265000,0.0324,0.013523,0.002678,0.000431,0.002468
3266000,0.0324,0.013523,0.002678,0.000431,0.002586
3267000,0.0324,0.013523,0.002678,0.000431,0.002351
3268000,0.0324,0.013523,0.002678,0.000431,0.002351
3269000,0.0324,0.013523,0.002678,0.000431,0.002116
3270000,0.0324,0.013523,0.002678,0.000431,0.002116
3271000,0.0324,0.013523,0.002678,0.000431,0.002938
3272000,0.0324,0.013523,0.002678,0.000431,0.002586
3273000,0.0324,0.013523,0.002678,0.000431,0.002586
3274000,0.0324,0.013523,0.002678,0.000431,0.002233
3275000,0.0324,0.013523,0.002678,0.000431,0.002703
3276000,0.0324,0.013523,0.002678,0.000431,0.001998
3277000,0.0324,0.013523,0.002678,0.000431,0.002468
3278000,0.0324,0.013523,0.002678,0.000431,0.002116
3279000,0.0324,0.013523,0.002678,0.000431,0.002116
3280000,0.0324,0.013523,0.002678,0.000431,0.002233
3281000,0.0324,0.013523,0.002678,0.000431,0.002468
3282000,0.0324,0.013523,0.002678,0.000431,0.002351
3283000,0.0324,0.013523,0.002678,0.000431,0.002586
3284000,0.0324,0.013523,0.002678,0.000431,0.002703
3285000,0.0324,0.013523,0.002678,0.000431,0.002351
3286000,0.0324,0.013523,0.002678,0.000431,0.002116
3287000,0.0324,0.013523,0.002678,0.000431,0.002233
3288000,0.0324,0.013523,0.002678,0.000431,0.002821
3289000,0.0324,0.013523,0.002678,0.000431,0.002233
3290000,0.0324,0.013523,0.002678,0.000431,0.002116
3291000,0.0324,0.013523,0.002678,0.000431,0.002586
3292000,0.0324,0.013523,0.002678,0.000431,0.002351
3293000,0.0324,0.013523,0.002678,0.000431,0.002233
3294000,0.0324,0.013523,0.002678,0.000431,0.002821
3295000,0.0324,0.013523,0.002678,0.000431,0.002233
3296000,0.0324,0.013523,0.002678,0.000431,0.002233
3297000,0.0324,0.013523,0.002678,0.000431,0.002586
3298000,0.0324,0.013523,0.002678,0.000431,0.002351
3299000,0.0324,0.013523,0.002678,0.000431,0.002703
3300000,0.0324,0.013523,0.002678,0.000431,0.002116
3301000,0.0324,0.013523,0.002678,0.000431,0.002468
3302000,0.0324,0.013523,0.002678,0.000431,0.002351
3303000,0.0324,0.013523,0.002678,0.000431,0.002233
3304000,0.0324,0.013523,0.002678,0.000431,0.002351
3305000,0.0324,0.013523,0.002678,0.000431,0.002116
3306000,0.0324,0.013523,0.002678,0.000431,0.002468
3307000,0.0324,0.013523,0.002678,0.000431,0.002233
3308000,0.0324,0.013523,0.002678,0.000431,0.002351
3309000,0.0324,0.013523,0.002678,0.000431,0.002351
3310000,0.0324,0.013523,0.002678,0.000431,0.002468
3311000,0.0324,0.013523,0.002678,0.000431,0.002351
3312000,0.0324,0.013523,0.002678,0.000431,0.002351
3313000,0.0324,0.013523,0.002678,0.000431,0.002468
3314000,0.0324,0.013523,0.002678,0.000431,0.002351
3315000,0.0324,0.013523,0.002678,0.000431,0.002351
3316000,0.0324,0.013523,0.002678,0.000431,0.002468
3317000,0.0324,0.013523,0.002678,0.000431,0.001998
3318000,0.0324,0.013523,0.002678,0.000431,0.002703
3319000,0.0324,0.013523,0.002678,0.000431,0.002116
3320000,0.0324,0.013523,0.002678,0.000431,0.002586
3321000,0.0324,0.013523,0.002678,0.000431,0.002351
3322000,0.0324,0.013523,0.002678,0.000431,0.002468
3323000,0.0324,0.013523,0.002678,0.000431,0.002116
3324000,0.0324,0.013523,0.002678,0.000431,0.002821
3325000,0.0324,0.013523,0.002678,0.000431,0.002116
3326000,0.0324,0.013523,0.002678,0.000431,0.002468
3327000,0.0324,0.013523,0.002678,0.000431,0.002586
3328000,0.0324,0.013523,0.002678,0.000431,0.002703
3329000,0.0324,0.013523,0.002678,0.000431,0.002351
3330000,0.0324,0.013523,0.002678,0.000431,0.002821
3331000,0.0324,0.013523,0.002678,0.000431,0.002703
3332000,0.0324,0.013523,0.002678,0.000431,0.002351
3333000,0.0324,0.013523,0.002678,0.000431,0.002468
3334000,0.0324,0.013523,0.002678,0.000431,0.002351
3335000,0.0324,0.013523,0.002678,0.000431,0.002116
3336000,0.0324,0.013523,0.002678,0.000431,0.002351
3337000,0.0324,0.013523,0.002678,0.000431,0.002116
3338000,0.0324,0.013523,0.002678,0.000431,0.002351
3339000,0.0324,0.013523,0.002678,0.000431,0.002586
3340000,0.0324,0.013523,0.002678,0.000431,0.002586
3341000,0.0324,0.013523,0.002678,0.000431,0.001763
3342000,0.0324,0.013523,0.002678,0.000431,0.002116
3343000,0.0324,0.013523,0.002678,0.000431,0.002821
3344000,0.0324,0.013523,0.002678,0.000431,0.001998
3345000,0.0324,0.013523,0.002678,0.000431,0.002703
3346000,0.0324,0.013523,0.002678,0.000431,0.002821
3347000,0.0324,0.013523,0.002678,0.000431,0.002703
3348000,0.0324,0.013523,0.002678,0.000431,0.002468
3349000,0.0324,0.013523,0.002678,0.000431,0.002233
3350000,0.0324,0.013523,0.002678,0.000431,0.002703
3351000,0.0324,0.013523,0.002678,0.000431,0.002351
3352000,0.0324,0.013523,0.002678,0.000431,0.002468
3353000,0.0324,0.013523,0.002678,0.000431,0.002703
3354000,0.0324,0.013523,0.002678,0.000431,0.002116
3355000,0.0324,0.013523,0.002678,0.000431,0.002233
3356000,0.0324,0.013523,0.002678,0.000431,0.002116
3357000,0.0324,0.013523,0.002678,0.000431,0.002821
3358000,0.0324,0.013523,0.002678,0.000431,0.002468
3359000,0.0324,0.013523,0.002678,0.000431,0.002351
3360000,0.0324,0.013523,0.002678,0.000431,0.002703
3361000,0.0324,0.013523,0.002678,0.000431,0.002703
3362000,0.0324,0.013523,0.002678,0.000431,0.002351
3363000,0.0324,0.013523,0.002678,0.000431,0.002116
3364000,0.0324,0.013523,0.002678,0.000431,0.002468
3365000,0.0324,0.013523,0.002678,0.000431,0.002703
3366000,0.0324,0.013523,0.002678,0.000431,0.002468
3367000,0.0324,0.013523,0.002678,0.000431,0.002586
3368000,0.0324,0.013523,0.002678,0.000431,0.002351
3369000,0.0324,0.013523,0.002678,0.000431,0.002586
3370000,0.0324,0.013523,0.002678,0.000431,0.002703
3371000,0.0324,0.013523,0.002678,0.000431,0.002821
3372000,0.0324,0.013523,0.002678,0.000431,0.002821
3373000,0.0324,0.013523,0.002678,0.000431,0.002468
3374000,0.0324,0.013523,0.002678,0.000431,0.002938
3375000,0.0324,0.013523,0.002678,0.000431,0.003173
3376000,0.0324,0.013523,0.002678,0.000431,0.002821
3377000,0.0324,0.013523,0.002678,0.000431,0.002703
3378000,0.0324,0.013523,0.002678,0.000431,0.002233
3379000,0.0324,0.013523,0.002678,0.000431,0.002586
3380000,0.0324,0.013523,0.002678,0.000431,0.002351
3381000,0.0324,0.013523,0.002678,0.000431,0.002116
3382000,0.0324,0.013523,0.002678,0.000431,0.002468
3383000,0.0324,0.013523,0.002678,0.000431,0.001998
3384000,0.0324,0.013523,0.002678,0.000431,0.002938
3385000,0.0324,0.013523,0.002678,0.000431,0.001998
3386000,0.0324,0.013523,0.002678,0.000431,0.002351
3387000,0.0324,0.013523,0.002678,0.000431,0.002586
3388000,0.0324,0.013523,0.002678,0.000431,0.002703
3389000,0.0324,0.013523,0.002678,0.000431,0.002233
3390000,0.0324,0.013523,0.002678,0.000431,0.003056
3391000,0.0324,0.013523,0.002678,0.000431,0.002468
3392000,0.0324,0.013523,0.002678,0.000431,0.002468
3393000,0.0324,0.013523,0.002678,0.000431,0.002233
3394000,0.0324,0.013523,0.002678,0.000431,0.002703
3395000,0.0324,0.013523,0.002678,0.000431,0.002821
3396000,0.0324,0.013523,0.002678,0.000431,0.002703
3397000,0.0324,0.013523,0.002678,0.000431,0.002703
3398000,0.0324,0.013523,0.002678,0.000431,0.002468
3399000,0.0324,0.013523,0.002678,0.000431,0.002468
3400000,0.0324,0.013523,0.002678,0.000431,0.002938
3401000,0.0324,0.013523,0.002678,0.000431,0.002821
3402000,0.0324,0.013523,0.002678,0.000431,0.002468
3403000,0.0324,0.013523,0.002678,0.000431,0.002703
3404000,0.0324,0.013523,0.002678,0.000431,0.001998
3405000,0.0324,0.013523,0.002678,0.000431,0.002586
3406000,0.0324,0.013523,0.002678,0.000431,0.002233
3407000,0.0324,0.013523,0.002678,0.000431,0.002233
3408000,0.0324,0.013523,0.002678,0.000431,0.002468
3409000,0.0324,0.013523,0.002678,0.000431,0.002351
3410000,0.0324,0.013523,0.002678,0.000431,0.002116
3411000,0.0324,0.013523,0.002678,0.000431,0.002116
3412000,0.0324,0.013523,0.002678,0.000431,0.002351
3413000,0.0324,0.013523,0.002678,0.000431,0.001998
3414000,0.0324,0.013523,0.002678,0.000431,0.002703
3415000,0.0324,0.013523,0.002678,0.000431,0.002703
3416000,0.0324,0.013523,0.002678,0.000431,0.002586
3417000,0.0324,0.013523,0.002678,0.000431,0.002351
3418000,0.0324,0.013523,0.002678,0.000431,0.003056
3419000,0.0324,0.013523,0.002678,0.000431,0.002116
3420000,0.0324,0.013523,0.002678,0.000431,0.002116
3421000,0.0324,0.013523,0.002678,0.000431,0.002586
3422000,0.0324,0.013523,0.002678,0.000431,0.002351
3423000,0.0324,0.013523,0.002678,0.000431,0.002116
3424000,0.0324,0.013523,0.002678,0.000431,0.002116
3425000,0.0324,0.013523,0.002678,0.000431,0.002233
3426000,0.0324,0.013523,0.002678,0.000431,0.003173
3427000,0.0324,0.013523,0.002678,0.000431,0.002468
3428000,0.0324,0.013523,0.002678,0.000431,0.002703
3429000,0.0324,0.013523,0.002678,0.000431,0.002586
3430000,0.0324,0.013523,0.002678,0.000431,0.002703
3431000,0.0324,0.013523,0.002678,0.000431,0.002468
3432000,0.0324,0.013523,0.002678,0.000431,0.002233
3433000,0.0324,0.013523,0.002678,0.000431,0.002468
3434000,0.0324,0.013523,0.002678,0.000431,0.002703
3435000,0.0324,0.013523,0.002678,0.000431,0.002468
3436000,0.0324,0.013523,0.002678,0.000431,0.002233
3437000,0.0324,0.013523,0.002678,0.000431,0.002703
3438000,0.0324,0.013523,0.002678,0.000431,0.002116
3439000,0.0324,0.013523,0.002678,0.000431,0.002351
3440000,0.0324,0.013523,0.002678,0.000431,0.002586
3441000,0.0324,0.013523,0.002678,0.000431,0.002468
3442000,0.0324,0.013523,0.002678,0.000431,0.001880
3443000,0.0324,0.013523,0.002678,0.000431,0.002821
3444000,0.0324,0.013523,0.002678,0.000431,0.002116
3445000,0.0324,0.013523,0.002678,0.000431,0.002468
3446000,0.0324,0.013523,0.002678,0.000431,0.002233
3447000,0.0324,0.013523,0.002678,0.000431,0.002703
3448000,0.0324,0.013523,0.002678,0.000431,0.002351
3449000,0.0324,0.013523,0.002678,0.000431,0.002351
3450000,0.0324,0.013523,0.002678,0.000431,0.002703
3451000,0.0324,0.013523,0.002678,0.000431,0.002586
3452000,0.0324,0.013523,0.002678,0.000431,0.002703
3453000,0.0324,0.013523,0.002678,0.000431,0.002233
3454000,0.0324,0.013523,0.002678,0.000431,0.002586
3455000,0.0324,0.013523,0.002678,0.000431,0.002586
3456000,0.0324,0.013523,0.002678,0.000431,0.002821
3457000,0.0324,0.013523,0.002678,0.000431,0.002233
3458000,0.0324,0.013523,0.002678,0.000431,0.001998
3459000,0.0324,0.013523,0.002678,0.000431,0.002468
3460000,0.0324,0.013523,0.002678,0.000431,0.002703
3461000,0.0324,0.013523,0.002678,0.000431,0.002233
3462000,0.0324,0.013523,0.002678,0.000431,0.002351
3463000,0.0324,0.013523,0.002678,0.000431,0.002468
3464000,0.0324,0.013523,0.002678,0.000431,0.002351
3465000,0.0324,0.013523,0.002678,0.000431,0.002938
3466000,0.0324,0.013523,0.002678,0.000431,0.002233
3467000,0.0324,0.013523,0.002678,0.000431,0.002116
3468000,0.0324,0.013523,0.002678,0.000431,0.002351
3469000,0.0324,0.013523,0.002678,0.000431,0.001880
3470000,0.0324,0.013523,0.002678,0.000431,0.002351
3471000,0.0324,0.013523,0.002678,0.000431,0.002351
3472000,0.0324,0.013523,0.002678,0.000431,0.002351
3473000,0.0324,0.013523,0.002678,0.000431,0.002821
3474000,0.0324,0.013523,0.002678,0.000431,0.002586
3475000,0.0324,0.013523,0.002678,0.000431,0.002703
3476000,0.0324,0.013523,0.002678,0.000431,0.002116
3477000,0.0324,0.013523,0.002678,0.000431,0.002468
3478000,0.0324,0.013523,0.002678,0.000431,0.002938
3479000,0.0324,0.013523,0.002678,0.000431,0.002233
3480000,0.0324,0.013523,0.002678,0.000431,0.002703
3481000,0.0324,0.013523,0.002678,0.000431,0.002468
3482000,0.0324,0.013523,0.002678,0.000431,0.002938
3483000,0.0324,0.013523,0.002678,0.000431,0.002586
3484000,0.0324,0.013523,0.002678,0.000431,0.002821
3485000,0.0324,0.013523,0.002678,0.000431,0.002468
3486000,0.0324,0.013523,0.002678,0.000431,0.002351
3487000,0.0324,0.013523,0.002678,0.000431,0.002703
3488000,0.0324,0.013523,0.002678,0.000431,0.002703
3489000,0.0324,0.013523,0.002678,0.000431,0.002468
3490000,0.0324,0.013523,0.002678,0.000431,0.002351
3491000,0.0324,0.013523,0.002678,0.000431,0.002233
3492000,0.0324,0.013523,0.002678,0.000431,0.002703
3493000,0.0324,0.013523,0.002678,0.000431,0.002468
3494000,0.0324,0.013523,0.002678,0.000431,0.002586
3495000,0.0324,0.013523,0.002678,0.000431,0.002116
3496000,0.0324,0.013523,0.002678,0.000431,0.002703
3497000,0.0324,0.013523,0.002678,0.000431,0.002233
3498000,0.0324,0.013523,0.002678,0.000431,0.002586
3499000,0.0324,0.013523,0.002678,0.000431,0.002351
3500000,0.0324,0.013523,0.002678,0.000431,0.002233
3501000,0.0324,0.013523,0.002678,0.000431,0.002468
3502000,0.0324,0.013523,0.002678,0.000431,0.002586
3503000,0.0324,0.013523,0.002678,0.000431,0.002468
3504000,0.0324,0.013523,0.002678,0.000431,0.002703
3505000,0.0324,0.013523,0.002678,0.000431,0.002703
3506000,0.0324,0.013523,0.002678,0.000431,0.002233
3507000,0.0324,0.013523,0.002678,0.000431,0.002468
3508000,0.0324,0.013523,0.002678,0.000431,0.002821
3509000,0.0324,0.013523,0.002678,0.000431,0.002351
3510000,0.0324,0.013523,0.002678,0.000431,0.002703
3511000,0.0324,0.013523,0.002678,0.000431,0.002351
3512000,0.0324,0.013523,0.002678,0.000431,0.001880
3513000,0.0324,0.013523,0.002678,0.000431,0.002233
3514000,0.0324,0.013523,0.002678,0.000431,0.001998
3515000,0.0324,0.013523,0.002678,0.000431,0.002351
3516000,0.0324,0.013523,0.002678,0.000431,0.002703
3517000,0.0324,0.013523,0.002678,0.000431,0.002586
3518000,0.0324,0.013523,0.002678,0.000431,0.002821
3519000,0.0324,0.013523,0.002678,0.000431,0.002468
3520000,0.0324,0.013523,0.002678,0.000431,0.002703
3521000,0.0324,0.013523,0.002678,0.000431,0.002233
3522000,0.0324,0.013523,0.002678,0.000431,0.002586
3523000,0.0324,0.013523,0.002678,0.000431,0.002351
3524000,0.0324,0.013523,0.002678,0.000431,0.002938
3525000,0.0324,0.013523,0.002678,0.000431,0.002586
3526000,0.0324,0.013523,0.002678,0.000431,0.002351
3527000,0.0324,0.013523,0.002678,0.000431,0.002351
3528000,0.0324,0.013523,0.002678,0.000431,0.002703
3529000,0.0324,0.013523,0.002678,0.000431,0.002233
3530000,0.0324,0.013523,0.002678,0.000431,0.003056
3531000,0.0324,0.013523,0.002678,0.000431,0.002938
3532000,0.0324,0.013523,0.002678,0.000431,0.002586
3533000,0.0324,0.013523,0.002678,0.000431,0.002468
3534000,0.0324,0.013523,0.002678,0.000431,0.002468
3535000,0.0324,0.013523,0.002678,0.000431,0.002586
3536000,0.0324,0.013523,0.002678,0.000431,0.003056
3537000,0.0324,0.013523,0.002678,0.000431,0.002821
3538000,0.0324,0.013523,0.002678,0.000431,0.002703
3539000,0.0324,0.013523,0.002678,0.000431,0.002468
3540000,0.0324,0.013523,0.002678,0.000431,0.002586
3541000,0.0324,0.013523,0.002678,0.000431,0.002703
3542000,0.0324,0.013523,0.002678,0.000431,0.002703
3543000,0.0324,0.013523,0.002678,0.000431,0.002468
3544000,0.0324,0.013523,0.002678,0.000431,0.002351
3545000,0.0324,0.013523,0.002678,0.000431,0.002703
3546000,0.0324,0.013523,0.002678,0.000431,0.002703
3547000,0.0324,0.013523,0.002678,0.000431,0.002703
3548000,0.0324,0.013523,0.002678,0.000431,0.002703
3549000,0.0324,0.013523,0.002678,0.000431,0.002586
3550000,0.0324,0.013523,0.002678,0.000431,0.002586
3551000,0.0324,0.013523,0.002678,0.000431,0.002821
3552000,0.0324,0.013523,0.002678,0.000431,0.003056
3553000,0.0324,0.013523,0.002678,0.000431,0.002703
3554000,0.0324,0.013523,0.002678,0.000431,0.002821
3555000,0.0324,0.013523,0.002678,0.000431,0.002468
3556000,0.0324,0.013523,0.002678,0.000431,0.003291
3557000,0.0324,0.013523,0.002678,0.000431,0.002821
3558000,0.0324,0.013523,0.002678,0.000431,0.002938
3559000,0.0324,0.013523,0.002678,0.000431,0.002938
3560000,0.0324,0.013523,0.002678,0.000431,0.002703
3561000,0.0324,0.013523,0.002678,0.000431,0.002703
3562000,0.0324,0.013523,0.002678,0.000431,0.002821
3563000,0.0324,0.013523,0.002678,0.000431,0.002703
3564000,0.0324,0.013523,0.002678,0.000431,0.002351
3565000,0.0324,0.013523,0.002678,0.000431,0.002938
3566000,0.0324,0.013523,0.002678,0.000431,0.002703
3567000,0.0324,0.013523,0.002678,0.000431,0.003173
3568000,0.0324,0.013523,0.002678,0.000431,0.002821
3569000,0.0324,0.013523,0.002678,0.000431,0.002351
3570000,0.0324,0.013523,0.002678,0.000431,0.002586
3571000,0.0324,0.013523,0.002678,0.000431,0.002468
3572000,0.0324,0.013523,0.002678,0.000431,0.002586
3573000,0.0324,0.013523,0.002678,0.000431,0.002468
3574000,0.0324,0.013523,0.002678,0.000431,0.002586
3575000,0.0324,0.013523,0.002678,0.000431,0.002938
3576000,0.0324,0.013523,0.002678,0.000431,0.002468
3577000,0.0324,0.013523,0.002678,0.000431,0.002351
3578000,0.0324,0.013523,0.002678,0.000431,0.003056
3579000,0.0324,0.013523,0.002678,0.000431,0.003291
3580000,0.0324,0.013523,0.002678,0.000431,0.002586
3581000,0.0324,0.013523,0.002678,0.000431,0.003056
3582000,0.0324,0.013523,0.002678,0.000431,0.002821
3583000,0.0324,0.013523,0.002678,0.000431,0.002351
3584000,0.0324,0.013523,0.002678,0.000431,0.002938
3585000,0.0324,0.013523,0.002678,0.000431,0.002468
3586000,0.0324,0.013523,0.002678,0.000431,0.002821
3587000,0.0324,0.013523,0.002678,0.000431,0.002351
3588000,0.0324,0.013523,0.002678,0.000431,0.002586
3589000,0.0324,0.013523,0.002678,0.000431,0.002703
3590000,0.0324,0.013523,0.002678,0.000431,0.002586
3591000,0.0324,0.013523,0.002678,0.000431,0.002938
3592000,0.0324,0.013523,0.002678,0.000431,0.002586
3593000,0.0324,0.013523,0.002678,0.000431,0.002351
3594000,0.0324,0.013523,0.002678,0.000431,0.002586
3595000,0.0324,0.013523,0.002678,0.000431,0.002703
3596000,0.0324,0.013523,0.002678,0.000431,0.002586
3597000,0.0324,0.013523,0.002678,0.000431,0.002586
3598000,0.0324,0.013523,0.002678,0.000431,0.002586
3599000,0.0324,0.013523,0.002678,0.000431,0.002821
3600000,0.0324,0.013523,0.002678,0.000431,0.002821
3601000,0.0324,0.013523,0.002678,0.000431,0.002233
3602000,0.0324,0.013523,0.002678,0.000431,0.002351
3603000,0.0324,0.013523,0.002678,0.000431,0.002938
3604000,0.0324,0.013523,0.002678,0.000431,0.002703
3605000,0.0324,0.013523,0.002678,0.000431,0.003056
3606000,0.0324,0.013523,0.002678,0.000431,0.003291
3607000,0.0324,0.013523,0.002678,0.000431,0.002821
3608000,0.0324,0.013523,0.002678,0.000431,0.002703
3609000,0.0324,0.013523,0.002678,0.000431,0.002703
3610000,0.0324,0.013523,0.002678,0.000431,0.002468
3611000,0.0324,0.013523,0.002678,0.000431,0.002938
3612000,0.0324,0.013523,0.002678,0.000431,0.002233
3613000,0.0324,0.013523,0.002678,0.000431,0.002468
3614000,0.0324,0.013523,0.002678,0.000431,0.003056
3615000,0.0324,0.013523,0.002678,0.000431,0.002821
3616000,0.0324,0.013523,0.002678,0.000431,0.002821
3617000,0.0324,0.013523,0.002678,0.000431,0.002468
3618000,0.0324,0.013523,0.002678,0.000431,0.002938
3619000,0.0324,0.013523,0.002678,0.000431,0.002703
3620000,0.0324,0.013523,0.002678,0.000431,0.002821
3621000,0.0324,0.013523,0.002678,0.000431,0.002586
3622000,0.0324,0.013523,0.002678,0.000431,0.003056
3623000,0.0324,0.013523,0.002678,0.000431,0.002821
3624000,0.0324,0.013523,0.002678,0.000431,0.003173
3625000,0.0324,0.013523,0.002678,0.000431,0.002821
3626000,0.0324,0.013523,0.002678,0.000431,0.002586
3627000,0.0324,0.013523,0.002678,0.000431,0.002703
3628000,0.0324,0.013523,0.002678,0.000431,0.002703
3629000,0.0324,0.013523,0.002678,0.000431,0.002468
3630000,0.0324,0.013523,0.002678,0.000431,0.002703
3631000,0.0324,0.013523,0.002678,0.000431,0.003056
3632000,0.0324,0.013523,0.002678,0.000431,0.002821
3633000,0.0324,0.013523,0.002678,0.000431,0.002703
3634000,0.0324,0.013523,0.002678,0.000431,0.002703
3635000,0.0324,0.013523,0.002678,0.000431,0.002938
3636000,0.0324,0.013523,0.002678,0.000431,0.002586
3637000,0.0324,0.013523,0.002678,0.000431,0.002586
3638000,0.0324,0.013523,0.002678,0.000431,0.002351
3639000,0.0324,0.013523,0.002678,0.000431,0.002938
3640000,0.0324,0.013523,0.002678,0.000431,0.002703
3641000,0.0324,0.013523,0.002678,0.000431,0.002586
3642000,0.0324,0.013523,0.002678,0.000431,0.002351
3643000,0.0324,0.013523,0.002678,0.000431,0.003056
3644000,0.0324,0.013523,0.002678,0.000431,0.002468
3645000,0.0324,0.013523,0.002678,0.000431,0.002821
3646000,0.0324,0.013523,0.002678,0.000431,0.002586
3647000,0.0324,0.013523,0.002678,0.000431,0.002586
3648000,0.0324,0.013523,0.002678,0.000431,0.002351
3649000,0.0324,0.013523,0.002678,0.000431,0.002821
3650000,0.0324,0.013523,0.002678,0.000431,0.002233
3651000,0.0324,0.013523,0.002678,0.000431,0.002351
3652000,0.0324,0.013523,0.002678,0.000431,0.003056
3653000,0.0324,0.013523,0.002678,0.000431,0.002703
3654000,0.0324,0.013523,0.002678,0.000431,0.002703
3655000,0.0324,0.013523,0.002678,0.000431,0.003056
3656000,0.0324,0.013523,0.002678,0.000431,0.002938
3657000,0.0324,0.013523,0.002678,0.000431,0.002821
3658000,0.0324,0.013523,0.002678,0.000431,0.002703
3659000,0.0324,0.013523,0.002678,0.000431,0.002703
3660000,0.0324,0.013523,0.002678,0.000431,0.002938
3661000,0.0324,0.013523,0.002678,0.000431,0.002468
3662000,0.0324,0.013523,0.002678,0.000431,0.002821
3663000,0.0324,0.013523,0.002678,0.000431,0.002468
3664000,0.0324,0.013523,0.002678,0.000431,0.002703
3665000,0.0324,0.013523,0.002678,0.000431,0.002351
3666000,0.0324,0.013523,0.002678,0.000431,0.002586
3667000,0.0324,0.013523,0.002678,0.000431,0.002703
3668000,0.0324,0.013523,0.002678,0.000431,0.002586
3669000,0.0324,0.013523,0.002678,0.000431,0.002703
3670000,0.0324,0.013523,0.002678,0.000431,0.002351
3671000,0.0324,0.013523,0.002678,0.000431,0.002703
3672000,0.0324,0.013523,0.002678,0.000431,0.002938
3673000,0.0324,0.013523,0.002678,0.000431,0.002586
3674000,0.0324,0.013523,0.002678,0.000431,0.002938
3675000,0.0324,0.013523,0.002678,0.000431,0.002468
3676000,0.0324,0.013523,0.002678,0.000431,0.002938
3677000,0.0324,0.013523,0.002678,0.000431,0.002586
3678000,0.0324,0.013523,0.002678,0.000431,0.002703
3679000,0.0324,0.013523,0.002678,0.000431,0.002233
3680000,0.0324,0.013523,0.002678,0.000431,0.002821
3681000,0.0324,0.013523,0.002678,0.000431,0.002821
3682000,0.0324,0.013523,0.002678,0.000431,0.002821
3683000,0.0324,0.013523,0.002678,0.000431,0.002468
3684000,0.0324,0.013523,0.002678,0.000431,0.002703
3685000,0.0324,0.013523,0.002678,0.000431,0.003056
3686000,0.0324,0.013523,0.002678,0.000431,0.002586
3687000,0.0324,0.013523,0.002678,0.000431,0.003056
3688000,0.0324,0.013523,0.002678,0.000431,0.002703
3689000,0.0324,0.013523,0.002678,0.000431,0.002821
3690000,0.0324,0.013523,0.002678,0.000431,0.002703
3691000,0.0324,0.013523,0.002678,0.000431,0.003056
3692000,0.0324,0.013523,0.002678,0.000431,0.002468
3693000,0.0324,0.013523,0.002678,0.000431,0.002703
3694000,0.0324,0.013523,0.002678,0.000431,0.002468
3695000,0.0324,0.013523,0.002678,0.000431,0.002821
3696000,0.0324,0.013523,0.002678,0.000431,0.002233
3697000,0.0324,0.013523,0.002678,0.000431,0.002703
3698000,0.0324,0.013523,0.002678,0.000431,0.002938
3699000,0.0324,0.013523,0.002678,0.000431,0.002586
3700000,0.0324,0.013523,0.002678,0.000431,0.002938
3701000,0.0324,0.013523,0.002678,0.000431,0.002821
3702000,0.0324,0.013523,0.002678,0.000431,0.002468
3703000,0.0324,0.013523,0.002678,0.000431,0.002586
3704000,0.0324,0.013523,0.002678,0.000431,0.002821
3705000,0.0324,0.013523,0.002678,0.000431,0.002703
3706000,0.0324,0.013523,0.002678,0.000431,0.003173
3707000,0.0324,0.013523,0.002678,0.000431,0.002586
3708000,0.0324,0.013523,0.002678,0.000431,0.002821
3709000,0.0324,0.013523,0.002678,0.000431,0.002938
3710000,0.0324,0.013523,0.002678,0.000431,0.002468
3711000,0.0324,0.013523,0.002678,0.000431,0.003291
3712000,0.0324,0.013523,0.002678,0.000431,0.003173
3713000,0.0324,0.013523,0.002678,0.000431,0.002938
3714000,0.0324,0.013523,0.002678,0.000431,0.002938
3715000,0.0324,0.013523,0.002678,0.000431,0.002586
3716000,0.0324,0.013523,0.002678,0.000431,0.002703
3717000,0.0324,0.013523,0.002678,0.000431,0.002468
3718000,0.0324,0.013523,0.002678,0.000431,0.002938
3719000,0.0324,0.013523,0.002678,0.000431,0.002938
3720000,0.0324,0.013523,0.002678,0.000431,0.002938
3721000,0.0324,0.013523,0.002678,0.000431,0.002938
3722000,0.0324,0.013523,0.002678,0.000431,0.002586
3723000,0.0324,0.013523,0.002678,0.000431,0.003056
3724000,0.0324,0.013523,0.002678,0.000431,0.002586
3725000,0.0324,0.013523,0.002678,0.000431,0.002468
3726000,0.0324,0.013523,0.002678,0.000431,0.002821
3727000,0.0324,0.013523,0.002678,0.000431,0.002468
3728000,0.0324,0.013523,0.002678,0.000431,0.002468
3729000,0.0324,0.013523,0.002678,0.000431,0.002703
3730000,0.0324,0.013523,0.002678,0.000431,0.002703
3731000,0.0324,0.013523,0.002678,0.000431,0.002351
3732000,0.0324,0.013523,0.002678,0.000431,0.002703
3733000,0.0324,0.013523,0.002678,0.000431,0.002586
3734000,0.0324,0.013523,0.002678,0.000431,0.002821
3735000,0.0324,0.013523,0.002678,0.000431,0.002821
3736000,0.0324,0.013523,0.002678,0.000431,0.003056
3737000,0.0324,0.013523,0.002678,0.000431,0.002703
3738000,0.0324,0.013523,0.002678,0.000431,0.002938
3739000,0.0324,0.013523,0.002678,0.000431,0.003056
3740000,0.0324,0.013523,0.002678,0.000431,0.002586
3741000,0.0324,0.013523,0.002678,0.000431,0.003173
3742000,0.0324,0.013523,0.002678,0.000431,0.002586
3743000,0.0324,0.013523,0.002678,0.000431,0.002703
3744000,0.0324,0.013523,0.002678,0.000431,0.002351
3745000,0.0324,0.013523,0.002678,0.000431,0.002821
3746000,0.0324,0.013523,0.002678,0.000431,0.002821
3747000,0.0324,0.013523,0.002678,0.000431,0.002703
3748000,0.0324,0.013523,0.002678,0.000431,0.002703
3749000,0.0324,0.013523,0.002678,0.000431,0.002468
3750000,0.0324,0.013523,0.002678,0.000431,0.002233
3751000,0.0324,0.013523,0.002678,0.000431,0.002703
3752000,0.0324,0.013523,0.002678,0.000431,0.002821
3753000,0.0324,0.013523,0.002678,0.000431,0.002116
3754000,0.0324,0.013523,0.002678,0.000431,0.003173
3755000,0.0324,0.013523,0.002678,0.000431,0.002703
3756000,0.0324,0.013523,0.002678,0.000431,0.003173
3757000,0.0324,0.013523,0.002678,0.000431,0.003056
3758000,0.0324,0.013523,0.002678,0.000431,0.002703
3759000,0.0324,0.013523,0.002678,0.000431,0.003173
3760000,0.0324,0.013523,0.002678,0.000431,0.002586
3761000,0.0324,0.013523,0.002678,0.000431,0.003056
3762000,0.0324,0.013523,0.002678,0.000431,0.003056
3763000,0.0324,0.013523,0.002678,0.000431,0.002586
3764000,0.0324,0.013523,0.002678,0.000431,0.002586
3765000,0.0324,0.013523,0.002678,0.000431,0.003173
3766000,0.0324,0.013523,0.002678,0.000431,0.002351
3767000,0.0324,0.013523,0.002678,0.000431,0.002821
3768000,0.0324,0.013523,0.002678,0.000431,0.003056
3769000,0.0324,0.013523,0.002678,0.000431,0.002821
3770000,0.0324,0.013523,0.002678,0.000431,0.002821
3771000,0.0324,0.013523,0.002678,0.000431,0.002703
3772000,0.0324,0.013523,0.002678,0.000431,0.002821
3773000,0.0324,0.013523,0.002678,0.000431,0.003173
3774000,0.0324,0.013523,0.002678,0.000431,0.002938
3775000,0.0324,0.013523,0.002678,0.000431,0.002938
3776000,0.0324,0.013523,0.002678,0.000431,0.002703
3777000,0.0324,0.013523,0.002678,0.000431,0.002586
3778000,0.0324,0.013523,0.002678,0.000431,0.002586
3779000,0.0324,0.013523,0.002678,0.000431,0.003056
3780000,0.0324,0.013523,0.002678,0.000431,0.002586
3781000,0.0324,0.013523,0.002678,0.000431,0.003056
3782000,0.0324,0.013523,0.002678,0.000431,0.002233
3783000,0.0324,0.013523,0.002678,0.000431,0.002821
3784000,0.0324,0.013523,0.002678,0.000431,0.002468
3785000,0.0324,0.013523,0.002678,0.000431,0.002938
3786000,0.0324,0.013523,0.002678,0.000431,0.002703
3787000,0.0324,0.013523,0.002678,0.000431,0.002821
3788000,0.0324,0.013523,0.002678,0.000431,0.003173
3789000,0.0324,0.013523,0.002678,0.000431,0.002938
3790000,0.0324,0.013523,0.002678,0.000431,0.002351
3791000,0.0324,0.013523,0.002678,0.000431,0.002821
3792000,0.0324,0.013523,0.002678,0.000431,0.002703
3793000,0.0324,0.013523,0.002678,0.000431,0.002703
3794000,0.0324,0.013523,0.002678,0.000431,0.002703
3795000,0.0324,0.013523,0.002678,0.000431,0.002468
3796000,0.0324,0.013523,0.002678,0.000431,0.002468
3797000,0.0324,0.013523,0.002678,0.000431,0.002586
3798000,0.0324,0.013523,0.002678,0.000431,0.002821
3799000,0.0324,0.013523,0.002678,0.000431,0.002821
3800000,0.0324,0.013523,0.002678,0.000431,0.002468
3801000,0.0324,0.013523,0.002678,0.000431,0.003173
3802000,0.0324,0.013523,0.002678,0.000431,0.002703
3803000,0.0324,0.013523,0.002678,0.000431,0.002821
3804000,0.0324,0.013523,0.002678,0.000431,0.002703
3805000,0.0324,0.013523,0.002678,0.000431,0.002703
3806000,0.0324,0.013523,0.002678,0.000431,0.002351
3807000,0.0324,0.013523,0.002678,0.000431,0.003056
3808000,0.0324,0.013523,0.002678,0.000431,0.003173
3809000,0.0324,0.013523,0.002678,0.000431,0.002703
3810000,0.0324,0.013523,0.002678,0.000431,0.002821
3811000,0.0324,0.013523,0.002678,0.000431,0.002468
3812000,0.0324,0.013523,0.002678,0.000431,0.003056
3813000,0.0324,0.013523,0.002678,0.000431,0.003291
3814000,0.0324,0.013523,0.002678,0.000431,0.002703
3815000,0.0324,0.013523,0.002678,0.000431,0.002703
3816000,0.0324,0.013523,0.002678,0.000431,0.002703
3817000,0.0324,0.013523,0.002678,0.000431,0.002703
3818000,0.0324,0.013523,0.002678,0.000431,0.002938
3819000,0.0324,0.013523,0.002678,0.000431,0.002586
3820000,0.0324,0.013523,0.002678,0.000431,0.002586
3821000,0.0324,0.013523,0.002678,0.000431,0.002351
3822000,0.0324,0.013523,0.002678,0.000431,0.002938
3823000,0.0324,0.013523,0.002678,0.000431,0.002821
3824000,0.0324,0.013523,0.002678,0.000431,0.003056
3825000,0.0324,0.013523,0.002678,0.000431,0.003056
3826000,0.0324,0.013523,0.002678,0.000431,0.002586
3827000,0.0324,0.013523,0.002678,0.000431,0.002703
3828000,0.0324,0.013523,0.002678,0.000431,0.003056
3829000,0.0324,0.013523,0.002678,0.000431,0.002938
3830000,0.0324,0.013523,0.002678,0.000431,0.002586
3831000,0.0324,0.013523,0.002678,0.000431,0.002821
3832000,0.0324,0.013523,0.002678,0.000431,0.003056
3833000,0.0324,0.013523,0.002678,0.000431,0.002821
3834000,0.0324,0.013523,0.002678,0.000431,0.002468
3835000,0.0324,0.013523,0.002678,0.000431,0.002586
3836000,0.0324,0.013523,0.002678,0.000431,0.002351
3837000,0.0324,0.013523,0.002678,0.000431,0.003056
3838000,0.0324,0.013523,0.002678,0.000431,0.002703
3839000,0.0324,0.013523,0.002678,0.000431,0.003173
3840000,0.0324,0.013523,0.002678,0.000431,0.002468
3841000,0.0324,0.013523,0.002678,0.000431,0.002586
3842000,0.0324,0.013523,0.002678,0.000431,0.002703
3843000,0.0324,0.013523,0.002678,0.000431,0.002703
3844000,0.0324,0.013523,0.002678,0.000431,0.002821
3845000,0.0324,0.013523,0.002678,0.000431,0.002703
3846000,0.0324,0.013523,0.002678,0.000431,0.002821
3847000,0.0324,0.013523,0.002678,0.000431,0.002586
3848000,0.0324,0.013523,0.002678,0.000431,0.002821
3849000,0.0324,0.013523,0.002678,0.000431,0.002938
3850000,0.0324,0.013523,0.002678,0.000431,0.003056
3851000,0.0324,0.013523,0.002678,0.000431,0.003056
3852000,0.0324,0.013523,0.002678,0.000431,0.002586
3853000,0.0324,0.013523,0.002678,0.000431,0.002468
3854000,0.0324,0.013523,0.002678,0.000431,0.002938
3855000,0.0324,0.013523,0.002678,0.000431,0.002586
3856000,0.0324,0.013523,0.002678,0.000431,0.002703
3857000,0.0324,0.013523,0.002678,0.000431,0.003056
3858000,0.0324,0.013523,0.002678,0.000431,0.003056
3859000,0.0324,0.013523,0.002678,0.000431,0.002821
3860000,0.0324,0.013523,0.002678,0.000431,0.002821
3861000,0.0324,0.013523,0.002678,0.000431,0.002703
3862000,0.0324,0.013523,0.002678,0.000431,0.002351
3863000,0.0324,0.013523,0.002678,0.000431,0.002938
3864000,0.0324,0.013523,0.002678,0.000431,0.002703
3865000,0.0324,0.013523,0.002678,0.000431,0.003056
3866000,0.0324,0.013523,0.002678,0.000431,0.002703
3867000,0.0324,0.013523,0.002678,0.000431,0.002351
3868000,0.0324,0.013523,0.002678,0.000431,0.002586
3869000,0.0324,0.013523,0.002678,0.000431,0.002938
3870000,0.0324,0.013523,0.002678,0.000431,0.002233
3871000,0.0324,0.013523,0.002678,0.000431,0.002703
3872000,0.0324,0.013523,0.002678,0.000431,0.002703
3873000,0.0324,0.013523,0.002678,0.000431,0.002938
3874000,0.0324,0.013523,0.002678,0.000431,0.002586
3875000,0.0324,0.013523,0.002678,0.000431,0.002938
3876000,0.0324,0.013523,0.002678,0.000431,0.002821
3877000,0.0324,0.013523,0.002678,0.000431,0.002938
3878000,0.0324,0.013523,0.002678,0.000431,0.002703
3879000,0.0324,0.013523,0.002678,0.000431,0.002703
3880000,0.0324,0.013523,0.002678,0.000431,0.002586
3881000,0.0324,0.013523,0.002678,0.000431,0.002703
3882000,0.0324,0.013523,0.002678,0.000431,0.002351
3883000,0.0324,0.013523,0.002678,0.000431,0.002938
3884000,0.0324,0.013523,0.002678,0.000431,0.002703
3885000,0.0324,0.013523,0.002678,0.000431,0.003056
3886000,0.0324,0.013523,0.002678,0.000431,0.002703
3887000,0.0324,0.013523,0.002678,0.000431,0.002938
3888000,0.0324,0.013523,0.002678,0.000431,0.002586
3889000,0.0324,0.013523,0.002678,0.000431,0.003056
3890000,0.0324,0.013523,0.002678,0.000431,0.003056
3891000,0.0324,0.013523,0.002678,0.000431,0.002938
3892000,0.0324,0.013523,0.002678,0.000431,0.002586
3893000,0.0324,0.013523,0.002678,0.000431,0.002468
3894000,0.0324,0.013523,0.002678,0.000431,0.002586
3895000,0.0324,0.013523,0.002678,0.000431,0.003173
3896000,0.0324,0.013523,0.002678,0.000431,0.002938
3897000,0.0324,0.013523,0.002678,0.000431,0.002703
3898000,0.0324,0.013523,0.002678,0.000431,0.002351
3899000,0.0324,0.013523,0.002678,0.000431,0.002468
3900000,0.0324,0.013523,0.002678,0.000431,0.003291
3901000,0.0324,0.013523,0.002678,0.000431,0.002821
3902000,0.0324,0.013523,0.002678,0.000431,0.002821
3903000,0.0324,0.013523,0.002678,0.000431,0.002821
3904000,0.0324,0.013523,0.002678,0.000431,0.002938
3905000,0.0324,0.013523,0.002678,0.000431,0.002703
3906000,0.0324,0.013523,0.002678,0.000431,0.002586
3907000,0.0324,0.013523,0.002678,0.000431,0.002351
3908000,0.0324,0.013523,0.002678,0.000431,0.003056
3909000,0.0324,0.013523,0.002678,0.000431,0.002703
3910000,0.0324,0.013523,0.002678,0.000431,0.002821
3911000,0.0324,0.013523,0.002678,0.000431,0.002703
3912000,0.0324,0.013523,0.002678,0.000431,0.002586
3913000,0.0324,0.013523,0.002678,0.000431,0.002468
3914000,0.0324,0.013523,0.002678,0.000431,0.003056
3915000,0.0324,0.013523,0.002678,0.000431,0.003173
3916000,0.0324,0.013523,0.002678,0.000431,0.003291
3917000,0.0324,0.013523,0.002678,0.000431,0.002703
3918000,0.0324,0.013523,0.002678,0.000431,0.003173
3919000,0.0324,0.013523,0.002678,0.000431,0.002821
3920000,0.0324,0.013523,0.002678,0.000431,0.003056
3921000,0.0324,0.013523,0.002678,0.000431,0.003173
3922000,0.0324,0.013523,0.002678,0.000431,0.002703
3923000,0.0324,0.013523,0.002678,0.000431,0.003056
3924000,0.0324,0.013523,0.002678,0.000431,0.002938
3925000,0.0324,0.013523,0.002678,0.000431,0.002351
3926000,0.0324,0.013523,0.002678,0.000431,0.002821
3927000,0.0324,0.013523,0.002678,0.000431,0.003173
3928000,0.0324,0.013523,0.002678,0.000431,0.003173
3929000,0.0324,0.013523,0.002678,0.000431,0.002586
3930000,0.0324,0.013523,0.002678,0.000431,0.003173
3931000,0.0324,0.013523,0.002678,0.000431,0.002938
3932000,0.0324,0.013523,0.002678,0.000431,0.002821
3933000,0.0324,0.013523,0.002678,0.000431,0.003056
3934000,0.0324,0.013523,0.002678,0.000431,0.003056
3935000,0.0324,0.013523,0.002678,0.000431,0.002938
3936000,0.0324,0.013523,0.002678,0.000431,0.002703
3937000,0.0324,0.013523,0.002678,0.000431,0.002821
3938000,0.0324,0.013523,0.002678,0.000431,0.003056
3939000,0.0324,0.013523,0.002678,0.000431,0.003173
3940000,0.0324,0.013523,0.002678,0.000431,0.002586
3941000,0.0324,0.013523,0.002678,0.000431,0.003173
3942000,0.0324,0.013523,0.002678,0.000431,0.002703
3943000,0.0324,0.013523,0.002678,0.000431,0.003056
3944000,0.0324,0.013523,0.002678,0.000431,0.002586
3945000,0.0324,0.013523,0.002678,0.000431,0.002938
3946000,0.0324,0.013523,0.002678,0.000431,0.003056
3947000,0.0324,0.013523,0.002678,0.000431,0.003056
3948000,0.0324,0.013523,0.002678,0.000431,0.002703
3949000,0.0324,0.013523,0.002678,0.000431,0.002821
3950000,0.0324,0.013523,0.002678,0.000431,0.002703
3951000,0.0324,0.013523,0.002678,0.000431,0.002821
3952000,0.0324,0.013523,0.002678,0.000431,0.002703
3953000,0.0324,0.013523,0.002678,0.000431,0.002586
3954000,0.0324,0.013523,0.002678,0.000431,0.002703
3955000,0.0324,0.013523,0.002678,0.000431,0.003173
3956000,0.0324,0.013523,0.002678,0.000431,0.002468
3957000,0.0324,0.013523,0.002678,0.000431,0.002586
3958000,0.0324,0.013523,0.002678,0.000431,0.002703
3959000,0.0324,0.013523,0.002678,0.000431,0.002821
3960000,0.0324,0.013523,0.002678,0.000431,0.002938
3961000,0.0324,0.013523,0.002678,0.000431,0.002703
3962000,0.0324,0.013523,0.002678,0.000431,0.003056
3963000,0.0324,0.013523,0.002678,0.000431,0.002351
3964000,0.0324,0.013523,0.002678,0.000431,0.002468
3965000,0.0324,0.013523,0.002678,0.000431,0.002586
3966000,0.0324,0.013523,0.002678,0.000431,0.002703
3967000,0.0324,0.013523,0.002678,0.000431,0.002821
3968000,0.0324,0.013523,0.002678,0.000431,0.002821
3969000,0.0324,0.013523,0.002678,0.000431,0.002586
3970000,0.0324,0.013523,0.002678,0.000431,0.002703
3971000,0.0324,0.013523,0.002678,0.000431,0.002351
3972000,0.0324,0.013523,0.002678,0.000431,0.002468
3973000,0.0324,0.013523,0.002678,0.000431,0.002821
3974000,0.0324,0.013523,0.002678,0.000431,0.002703
3975000,0.0324,0.013523,0.002678,0.000431,0.002703
3976000,0.0324,0.013523,0.002678,0.000431,0.003056
3977000,0.0324,0.013523,0.002678,0.000431,0.002703
3978000,0.0324,0.013523,0.002678,0.000431,0.002821
3979000,0.0324,0.013523,0.002678,0.000431,0.002938
3980000,0.0324,0.013523,0.002678,0.000431,0.002703
3981000,0.0324,0.013523,0.002678,0.000431,0.002586
3982000,0.0324,0.013523,0.002678,0.000431,0.002351
3983000,0.0324,0.013523,0.002678,0.000431,0.002351
3984000,0.0324,0.013523,0.002678,0.000431,0.002116
3985000,0.0324,0.013523,0.002678,0.000431,0.002821
3986000,0.0324,0.013523,0.002678,0.000431,0.002703
3987000,0.0324,0.013523,0.002678,0.000431,0.002586
3988000,0.0324,0.013523,0.002678,0.000431,0.002468
3989000,0.0324,0.013523,0.002678,0.000431,0.002703
3990000,0.0324,0.013523,0.002678,0.000431,0.003173
3991000,0.0324,0.013523,0.002678,0.000431,0.002468
3992000,0.0324,0.013523,0.002678,0.000431,0.002703
3993000,0.0324,0.013523,0.002678,0.000431,0.002821
3994000,0.0324,0.013523,0.002678,0.000431,0.002468
3995000,0.0324,0.013523,0.002678,0.000431,0.003056
3996000,0.0324,0.013523,0.002678,0.000431,0.002468
3997000,0.0324,0.013523,0.002678,0.000431,0.002938
3998000,0.0324,0.013523,0.002678,0.000431,0.002351
3999000,0.0324,0.013523,0.002678,0.000431,0.002703
