Cycle,Area(mm^2),PeakDynamic(W),SubthresholdLeakage(W),GateLeakage(W),RunTimeDynamic(W)
4000000,0.0324,0.013523,0.002678,0.000431,0.002938
4001000,0.0324,0.013523,0.002678,0.000431,0.002351
4002000,0.0324,0.013523,0.002678,0.000431,0.003173
4003000,0.0324,0.013523,0.002678,0.000431,0.002233
4004000,0.0324,0.013523,0.002678,0.000431,0.002351
4005000,0.0324,0.013523,0.002678,0.000431,0.002938
4006000,0.0324,0.013523,0.002678,0.000431,0.003173
4007000,0.0324,0.013523,0.002678,0.000431,0.002468
4008000,0.0324,0.013523,0.002678,0.000431,0.002703
4009000,0.0324,0.013523,0.002678,0.000431,0.002703
4010000,0.0324,0.013523,0.002678,0.000431,0.002938
4011000,0.0324,0.013523,0.002678,0.000431,0.002938
4012000,0.0324,0.013523,0.002678,0.000431,0.002703
4013000,0.0324,0.013523,0.002678,0.000431,0.002821
4014000,0.0324,0.013523,0.002678,0.000431,0.002938
4015000,0.0324,0.013523,0.002678,0.000431,0.002821
4016000,0.0324,0.013523,0.002678,0.000431,0.003056
4017000,0.0324,0.013523,0.002678,0.000431,0.002351
4018000,0.0324,0.013523,0.002678,0.000431,0.002938
4019000,0.0324,0.013523,0.002678,0.000431,0.002821
4020000,0.0324,0.013523,0.002678,0.000431,0.003056
4021000,0.0324,0.013523,0.002678,0.000431,0.002821
4022000,0.0324,0.013523,0.002678,0.000431,0.002468
4023000,0.0324,0.013523,0.002678,0.000431,0.002586
4024000,0.0324,0.013523,0.002678,0.000431,0.002351
4025000,0.0324,0.013523,0.002678,0.000431,0.003173
4026000,0.0324,0.013523,0.002678,0.000431,0.002821
4027000,0.0324,0.013523,0.002678,0.000431,0.002703
4028000,0.0324,0.013523,0.002678,0.000431,0.002351
4029000,0.0324,0.013523,0.002678,0.000431,0.002703
4030000,0.0324,0.013523,0.002678,0.000431,0.002938
4031000,0.0324,0.013523,0.002678,0.000431,0.003056
4032000,0.0324,0.013523,0.002678,0.000431,0.002703
4033000,0.0324,0.013523,0.002678,0.000431,0.003056
4034000,0.0324,0.013523,0.002678,0.000431,0.002468
4035000,0.0324,0.013523,0.002678,0.000431,0.002821
4036000,0.0324,0.013523,0.002678,0.000431,0.003056
4037000,0.0324,0.013523,0.002678,0.000431,0.002468
4038000,0.0324,0.013523,0.002678,0.000431,0.002703
4039000,0.0324,0.013523,0.002678,0.000431,0.002586
4040000,0.0324,0.013523,0.002678,0.000431,0.002703
4041000,0.0324,0.013523,0.002678,0.000431,0.002468
4042000,0.0324,0.013523,0.002678,0.000431,0.002821
4043000,0.0324,0.013523,0.002678,0.000431,0.002351
4044000,0.0324,0.013523,0.002678,0.000431,0.002586
4045000,0.0324,0.013523,0.002678,0.000431,0.002468
4046000,0.0324,0.013523,0.002678,0.000431,0.002703
4047000,0.0324,0.013523,0.002678,0.000431,0.002703
4048000,0.0324,0.013523,0.002678,0.000431,0.002938
4049000,0.0324,0.013523,0.002678,0.000431,0.002821
4050000,0.0324,0.013523,0.002678,0.000431,0.002586
4051000,0.0324,0.013523,0.002678,0.000431,0.002938
4052000,0.0324,0.013523,0.002678,0.000431,0.002938
4053000,0.0324,0.013523,0.002678,0.000431,0.002468
4054000,0.0324,0.013523,0.002678,0.000431,0.002703
4055000,0.0324,0.013523,0.002678,0.000431,0.002703
4056000,0.0324,0.013523,0.002678,0.000431,0.002821
4057000,0.0324,0.013523,0.002678,0.000431,0.002703
4058000,0.0324,0.013523,0.002678,0.000431,0.002233
4059000,0.0324,0.013523,0.002678,0.000431,0.002116
4060000,0.0324,0.013523,0.002678,0.000431,0.003056
4061000,0.0324,0.013523,0.002678,0.000431,0.002703
4062000,0.0324,0.013523,0.002678,0.000431,0.002821
4063000,0.0324,0.013523,0.002678,0.000431,0.002821
4064000,0.0324,0.013523,0.002678,0.000431,0.003056
4065000,0.0324,0.013523,0.002678,0.000431,0.002938
4066000,0.0324,0.013523,0.002678,0.000431,0.002703
4067000,0.0324,0.013523,0.002678,0.000431,0.003056
4068000,0.0324,0.013523,0.002678,0.000431,0.002351
4069000,0.0324,0.013523,0.002678,0.000431,0.002703
4070000,0.0324,0.013523,0.002678,0.000431,0.002703
4071000,0.0324,0.013523,0.002678,0.000431,0.002821
4072000,0.0324,0.013523,0.002678,0.000431,0.002468
4073000,0.0324,0.013523,0.002678,0.000431,0.003173
4074000,0.0324,0.013523,0.002678,0.000431,0.002351
4075000,0.0324,0.013523,0.002678,0.000431,0.003173
4076000,0.0324,0.013523,0.002678,0.000431,0.002703
4077000,0.0324,0.013523,0.002678,0.000431,0.002938
4078000,0.0324,0.013523,0.002678,0.000431,0.002821
4079000,0.0324,0.013523,0.002678,0.000431,0.002703
4080000,0.0324,0.013523,0.002678,0.000431,0.002703
4081000,0.0324,0.013523,0.002678,0.000431,0.002703
4082000,0.0324,0.013523,0.002678,0.000431,0.002703
4083000,0.0324,0.013523,0.002678,0.000431,0.002938
4084000,0.0324,0.013523,0.002678,0.000431,0.002586
4085000,0.0324,0.013523,0.002678,0.000431,0.002703
4086000,0.0324,0.013523,0.002678,0.000431,0.002938
4087000,0.0324,0.013523,0.002678,0.000431,0.002468
4088000,0.0324,0.013523,0.002678,0.000431,0.002703
4089000,0.0324,0.013523,0.002678,0.000431,0.002703
4090000,0.0324,0.013523,0.002678,0.000431,0.002821
4091000,0.0324,0.013523,0.002678,0.000431,0.002821
4092000,0.0324,0.013523,0.002678,0.000431,0.002938
4093000,0.0324,0.013523,0.002678,0.000431,0.002703
4094000,0.0324,0.013523,0.002678,0.000431,0.002938
4095000,0.0324,0.013523,0.002678,0.000431,0.002938
4096000,0.0324,0.013523,0.002678,0.000431,0.002586
4097000,0.0324,0.013523,0.002678,0.000431,0.002938
4098000,0.0324,0.013523,0.002678,0.000431,0.002938
4099000,0.0324,0.013523,0.002678,0.000431,0.002821
4100000,0.0324,0.013523,0.002678,0.000431,0.002938
4101000,0.0324,0.013523,0.002678,0.000431,0.002821
4102000,0.0324,0.013523,0.002678,0.000431,0.002938
4103000,0.0324,0.013523,0.002678,0.000431,0.002468
4104000,0.0324,0.013523,0.002678,0.000431,0.002468
4105000,0.0324,0.013523,0.002678,0.000431,0.003173
4106000,0.0324,0.013523,0.002678,0.000431,0.002586
4107000,0.0324,0.013523,0.002678,0.000431,0.002703
4108000,0.0324,0.013523,0.002678,0.000431,0.002821
4109000,0.0324,0.013523,0.002678,0.000431,0.002703
4110000,0.0324,0.013523,0.002678,0.000431,0.003056
4111000,0.0324,0.013523,0.002678,0.000431,0.003173
4112000,0.0324,0.013523,0.002678,0.000431,0.002586
4113000,0.0324,0.013523,0.002678,0.000431,0.003056
4114000,0.0324,0.013523,0.002678,0.000431,0.002821
4115000,0.0324,0.013523,0.002678,0.000431,0.002116
4116000,0.0324,0.013523,0.002678,0.000431,0.002586
4117000,0.0324,0.013523,0.002678,0.000431,0.002938
4118000,0.0324,0.013523,0.002678,0.000431,0.002821
4119000,0.0324,0.013523,0.002678,0.000431,0.003056
4120000,0.0324,0.013523,0.002678,0.000431,0.002351
4121000,0.0324,0.013523,0.002678,0.000431,0.002821
4122000,0.0324,0.013523,0.002678,0.000431,0.002703
4123000,0.0324,0.013523,0.002678,0.000431,0.002703
4124000,0.0324,0.013523,0.002678,0.000431,0.002938
4125000,0.0324,0.013523,0.002678,0.000431,0.002703
4126000,0.0324,0.013523,0.002678,0.000431,0.002468
4127000,0.0324,0.013523,0.002678,0.000431,0.002468
4128000,0.0324,0.013523,0.002678,0.000431,0.003056
4129000,0.0324,0.013523,0.002678,0.000431,0.002703
4130000,0.0324,0.013523,0.002678,0.000431,0.002703
4131000,0.0324,0.013523,0.002678,0.000431,0.002703
4132000,0.0324,0.013523,0.002678,0.000431,0.002938
4133000,0.0324,0.013523,0.002678,0.000431,0.002938
4134000,0.0324,0.013523,0.002678,0.000431,0.002938
4135000,0.0324,0.013523,0.002678,0.000431,0.002468
4136000,0.0324,0.013523,0.002678,0.000431,0.002703
4137000,0.0324,0.013523,0.002678,0.000431,0.002586
4138000,0.0324,0.013523,0.002678,0.000431,0.003291
4139000,0.0324,0.013523,0.002678,0.000431,0.002938
4140000,0.0324,0.013523,0.002678,0.000431,0.002938
4141000,0.0324,0.013523,0.002678,0.000431,0.003173
4142000,0.0324,0.013523,0.002678,0.000431,0.002703
4143000,0.0324,0.013523,0.002678,0.000431,0.002703
4144000,0.0324,0.013523,0.002678,0.000431,0.003173
4145000,0.0324,0.013523,0.002678,0.000431,0.003173
4146000,0.0324,0.013523,0.002678,0.000431,0.002586
4147000,0.0324,0.013523,0.002678,0.000431,0.002821
4148000,0.0324,0.013523,0.002678,0.000431,0.002703
4149000,0.0324,0.013523,0.002678,0.000431,0.003173
4150000,0.0324,0.013523,0.002678,0.000431,0.002938
4151000,0.0324,0.013523,0.002678,0.000431,0.002468
4152000,0.0324,0.013523,0.002678,0.000431,0.002821
4153000,0.0324,0.013523,0.002678,0.000431,0.002586
4154000,0.0324,0.013523,0.002678,0.000431,0.003291
4155000,0.0324,0.013523,0.002678,0.000431,0.002938
4156000,0.0324,0.013523,0.002678,0.000431,0.002703
4157000,0.0324,0.013523,0.002678,0.000431,0.002703
4158000,0.0324,0.013523,0.002678,0.000431,0.002468
4159000,0.0324,0.013523,0.002678,0.000431,0.002468
4160000,0.0324,0.013523,0.002678,0.000431,0.002468
4161000,0.0324,0.013523,0.002678,0.000431,0.002586
4162000,0.0324,0.013523,0.002678,0.000431,0.002821
4163000,0.0324,0.013523,0.002678,0.000431,0.002938
4164000,0.0324,0.013523,0.002678,0.000431,0.003408
4165000,0.0324,0.013523,0.002678,0.000431,0.002468
4166000,0.0324,0.013523,0.002678,0.000431,0.003056
4167000,0.0324,0.013523,0.002678,0.000431,0.002586
4168000,0.0324,0.013523,0.002678,0.000431,0.003291
4169000,0.0324,0.013523,0.002678,0.000431,0.002821
4170000,0.0324,0.013523,0.002678,0.000431,0.002821
4171000,0.0324,0.013523,0.002678,0.000431,0.003056
4172000,0.0324,0.013523,0.002678,0.000431,0.002938
4173000,0.0324,0.013523,0.002678,0.000431,0.002938
4174000,0.0324,0.013523,0.002678,0.000431,0.003056
4175000,0.0324,0.013523,0.002678,0.000431,0.002703
4176000,0.0324,0.013523,0.002678,0.000431,0.002938
4177000,0.0324,0.013523,0.002678,0.000431,0.002821
4178000,0.0324,0.013523,0.002678,0.000431,0.003291
4179000,0.0324,0.013523,0.002678,0.000431,0.003056
4180000,0.0324,0.013523,0.002678,0.000431,0.002938
4181000,0.0324,0.013523,0.002678,0.000431,0.002938
4182000,0.0324,0.013523,0.002678,0.000431,0.002703
4183000,0.0324,0.013523,0.002678,0.000431,0.002586
4184000,0.0324,0.013523,0.002678,0.000431,0.002821
4185000,0.0324,0.013523,0.002678,0.000431,0.002821
4186000,0.0324,0.013523,0.002678,0.000431,0.002468
4187000,0.0324,0.013523,0.002678,0.000431,0.003056
4188000,0.0324,0.013523,0.002678,0.000431,0.002586
4189000,0.0324,0.013523,0.002678,0.000431,0.002233
4190000,0.0324,0.013523,0.002678,0.000431,0.002821
4191000,0.0324,0.013523,0.002678,0.000431,0.002938
4192000,0.0324,0.013523,0.002678,0.000431,0.003408
4193000,0.0324,0.013523,0.002678,0.000431,0.002586
4194000,0.0324,0.013523,0.002678,0.000431,0.002351
4195000,0.0324,0.013523,0.002678,0.000431,0.003291
4196000,0.0324,0.013523,0.002678,0.000431,0.002938
4197000,0.0324,0.013523,0.002678,0.000431,0.002821
4198000,0.0324,0.013523,0.002678,0.000431,0.002821
4199000,0.0324,0.013523,0.002678,0.000431,0.002703
4200000,0.0324,0.013523,0.002678,0.000431,0.002821
4201000,0.0324,0.013523,0.002678,0.000431,0.002468
4202000,0.0324,0.013523,0.002678,0.000431,0.003173
4203000,0.0324,0.013523,0.002678,0.000431,0.002586
4204000,0.0324,0.013523,0.002678,0.000431,0.002703
4205000,0.0324,0.013523,0.002678,0.000431,0.002938
4206000,0.0324,0.013523,0.002678,0.000431,0.002938
4207000,0.0324,0.013523,0.002678,0.000431,0.002703
4208000,0.0324,0.013523,0.002678,0.000431,0.002586
4209000,0.0324,0.013523,0.002678,0.000431,0.002703
4210000,0.0324,0.013523,0.002678,0.000431,0.002703
4211000,0.0324,0.013523,0.002678,0.000431,0.002938
4212000,0.0324,0.013523,0.002678,0.000431,0.003173
4213000,0.0324,0.013523,0.002678,0.000431,0.002586
4214000,0.0324,0.013523,0.002678,0.000431,0.002116
4215000,0.0324,0.013523,0.002678,0.000431,0.002468
4216000,0.0324,0.013523,0.002678,0.000431,0.002233
4217000,0.0324,0.013523,0.002678,0.000431,0.002351
4218000,0.0324,0.013523,0.002678,0.000431,0.002586
4219000,0.0324,0.013523,0.002678,0.000431,0.002468
4220000,0.0324,0.013523,0.002678,0.000431,0.002586
4221000,0.0324,0.013523,0.002678,0.000431,0.002703
4222000,0.0324,0.013523,0.002678,0.000431,0.002586
4223000,0.0324,0.013523,0.002678,0.000431,0.003173
4224000,0.0324,0.013523,0.002678,0.000431,0.002821
4225000,0.0324,0.013523,0.002678,0.000431,0.002703
4226000,0.0324,0.013523,0.002678,0.000431,0.002468
4227000,0.0324,0.013523,0.002678,0.000431,0.002821
4228000,0.0324,0.013523,0.002678,0.000431,0.002821
4229000,0.0324,0.013523,0.002678,0.000431,0.002351
4230000,0.0324,0.013523,0.002678,0.000431,0.002821
4231000,0.0324,0.013523,0.002678,0.000431,0.002703
4232000,0.0324,0.013523,0.002678,0.000431,0.002821
4233000,0.0324,0.013523,0.002678,0.000431,0.002586
4234000,0.0324,0.013523,0.002678,0.000431,0.002468
4235000,0.0324,0.013523,0.002678,0.000431,0.003056
4236000,0.0324,0.013523,0.002678,0.000431,0.002703
4237000,0.0324,0.013523,0.002678,0.000431,0.002821
4238000,0.0324,0.013523,0.002678,0.000431,0.002233
4239000,0.0324,0.013523,0.002678,0.000431,0.002351
4240000,0.0324,0.013523,0.002678,0.000431,0.002938
4241000,0.0324,0.013523,0.002678,0.000431,0.002586
4242000,0.0324,0.013523,0.002678,0.000431,0.002586
4243000,0.0324,0.013523,0.002678,0.000431,0.003056
4244000,0.0324,0.013523,0.002678,0.000431,0.002468
4245000,0.0324,0.013523,0.002678,0.000431,0.003056
4246000,0.0324,0.013523,0.002678,0.000431,0.002938
4247000,0.0324,0.013523,0.002678,0.000431,0.003056
4248000,0.0324,0.013523,0.002678,0.000431,0.002821
4249000,0.0324,0.013523,0.002678,0.000431,0.003291
4250000,0.0324,0.013523,0.002678,0.000431,0.002468
4251000,0.0324,0.013523,0.002678,0.000431,0.002703
4252000,0.0324,0.013523,0.002678,0.000431,0.002586
4253000,0.0324,0.013523,0.002678,0.000431,0.002821
4254000,0.0324,0.013523,0.002678,0.000431,0.002821
4255000,0.0324,0.013523,0.002678,0.000431,0.002468
4256000,0.0324,0.013523,0.002678,0.000431,0.002821
4257000,0.0324,0.013523,0.002678,0.000431,0.002468
4258000,0.0324,0.013523,0.002678,0.000431,0.003291
4259000,0.0324,0.013523,0.002678,0.000431,0.003056
4260000,0.0324,0.013523,0.002678,0.000431,0.002468
4261000,0.0324,0.013523,0.002678,0.000431,0.003173
4262000,0.0324,0.013523,0.002678,0.000431,0.003056
4263000,0.0324,0.013523,0.002678,0.000431,0.002821
4264000,0.0324,0.013523,0.002678,0.000431,0.002468
4265000,0.0324,0.013523,0.002678,0.000431,0.002468
4266000,0.0324,0.013523,0.002678,0.000431,0.002821
4267000,0.0324,0.013523,0.002678,0.000431,0.002586
4268000,0.0324,0.013523,0.002678,0.000431,0.002351
4269000,0.0324,0.013523,0.002678,0.000431,0.002821
4270000,0.0324,0.013523,0.002678,0.000431,0.002938
4271000,0.0324,0.013523,0.002678,0.000431,0.001998
4272000,0.0324,0.013523,0.002678,0.000431,0.002821
4273000,0.0324,0.013523,0.002678,0.000431,0.002821
4274000,0.0324,0.013523,0.002678,0.000431,0.002938
4275000,0.0324,0.013523,0.002678,0.000431,0.002938
4276000,0.0324,0.013523,0.002678,0.000431,0.002938
4277000,0.0324,0.013523,0.002678,0.000431,0.002586
4278000,0.0324,0.013523,0.002678,0.000431,0.002938
4279000,0.0324,0.013523,0.002678,0.000431,0.002586
4280000,0.0324,0.013523,0.002678,0.000431,0.003056
4281000,0.0324,0.013523,0.002678,0.000431,0.002703
4282000,0.0324,0.013523,0.002678,0.000431,0.002938
4283000,0.0324,0.013523,0.002678,0.000431,0.002821
4284000,0.0324,0.013523,0.002678,0.000431,0.002586
4285000,0.0324,0.013523,0.002678,0.000431,0.002938
4286000,0.0324,0.013523,0.002678,0.000431,0.002586
4287000,0.0324,0.013523,0.002678,0.000431,0.003056
4288000,0.0324,0.013523,0.002678,0.000431,0.002938
4289000,0.0324,0.013523,0.002678,0.000431,0.002703
4290000,0.0324,0.013523,0.002678,0.000431,0.002938
4291000,0.0324,0.013523,0.002678,0.000431,0.002703
4292000,0.0324,0.013523,0.002678,0.000431,0.002938
4293000,0.0324,0.013523,0.002678,0.000431,0.003173
4294000,0.0324,0.013523,0.002678,0.000431,0.002116
4295000,0.0324,0.013523,0.002678,0.000431,0.002586
4296000,0.0324,0.013523,0.002678,0.000431,0.003056
4297000,0.0324,0.013523,0.002678,0.000431,0.002586
4298000,0.0324,0.013523,0.002678,0.000431,0.003173
4299000,0.0324,0.013523,0.002678,0.000431,0.002116
4300000,0.0324,0.013523,0.002678,0.000431,0.002938
4301000,0.0324,0.013523,0.002678,0.000431,0.002703
4302000,0.0324,0.013523,0.002678,0.000431,0.002586
4303000,0.0324,0.013523,0.002678,0.000431,0.002116
4304000,0.0324,0.013523,0.002678,0.000431,0.003056
4305000,0.0324,0.013523,0.002678,0.000431,0.002468
4306000,0.0324,0.013523,0.002678,0.000431,0.003291
4307000,0.0324,0.013523,0.002678,0.000431,0.002586
4308000,0.0324,0.013523,0.002678,0.000431,0.002703
4309000,0.0324,0.013523,0.002678,0.000431,0.002116
4310000,0.0324,0.013523,0.002678,0.000431,0.002821
4311000,0.0324,0.013523,0.002678,0.000431,0.002703
4312000,0.0324,0.013523,0.002678,0.000431,0.002468
4313000,0.0324,0.013523,0.002678,0.000431,0.002233
4314000,0.0324,0.013523,0.002678,0.000431,0.002703
4315000,0.0324,0.013523,0.002678,0.000431,0.003173
4316000,0.0324,0.013523,0.002678,0.000431,0.002821
4317000,0.0324,0.013523,0.002678,0.000431,0.002586
4318000,0.0324,0.013523,0.002678,0.000431,0.002938
4319000,0.0324,0.013523,0.002678,0.000431,0.003056
4320000,0.0324,0.013523,0.002678,0.000431,0.002703
4321000,0.0324,0.013523,0.002678,0.000431,0.002703
4322000,0.0324,0.013523,0.002678,0.000431,0.002938
4323000,0.0324,0.013523,0.002678,0.000431,0.002821
4324000,0.0324,0.013523,0.002678,0.000431,0.002703
4325000,0.0324,0.013523,0.002678,0.000431,0.002351
4326000,0.0324,0.013523,0.002678,0.000431,0.003056
4327000,0.0324,0.013523,0.002678,0.000431,0.002703
4328000,0.0324,0.013523,0.002678,0.000431,0.002938
4329000,0.0324,0.013523,0.002678,0.000431,0.002938
4330000,0.0324,0.013523,0.002678,0.000431,0.002233
4331000,0.0324,0.013523,0.002678,0.000431,0.002938
4332000,0.0324,0.013523,0.002678,0.000431,0.002468
4333000,0.0324,0.013523,0.002678,0.000431,0.002703
4334000,0.0324,0.013523,0.002678,0.000431,0.003056
4335000,0.0324,0.013523,0.002678,0.000431,0.002821
4336000,0.0324,0.013523,0.002678,0.000431,0.002703
4337000,0.0324,0.013523,0.002678,0.000431,0.002468
4338000,0.0324,0.013523,0.002678,0.000431,0.002938
4339000,0.0324,0.013523,0.002678,0.000431,0.002938
4340000,0.0324,0.013523,0.002678,0.000431,0.002938
4341000,0.0324,0.013523,0.002678,0.000431,0.003056
4342000,0.0324,0.013523,0.002678,0.000431,0.002938
4343000,0.0324,0.013523,0.002678,0.000431,0.002703
4344000,0.0324,0.013523,0.002678,0.000431,0.002703
4345000,0.0324,0.013523,0.002678,0.000431,0.002703
4346000,0.0324,0.013523,0.002678,0.000431,0.003173
4347000,0.0324,0.013523,0.002678,0.000431,0.002938
4348000,0.0324,0.013523,0.002678,0.000431,0.003173
4349000,0.0324,0.013523,0.002678,0.000431,0.002468
4350000,0.0324,0.013523,0.002678,0.000431,0.002821
4351000,0.0324,0.013523,0.002678,0.000431,0.002821
4352000,0.0324,0.013523,0.002678,0.000431,0.003173
4353000,0.0324,0.013523,0.002678,0.000431,0.002938
4354000,0.0324,0.013523,0.002678,0.000431,0.002468
4355000,0.0324,0.013523,0.002678,0.000431,0.003291
4356000,0.0324,0.013523,0.002678,0.000431,0.002821
4357000,0.0324,0.013523,0.002678,0.000431,0.002468
4358000,0.0324,0.013523,0.002678,0.000431,0.002586
4359000,0.0324,0.013523,0.002678,0.000431,0.002703
4360000,0.0324,0.013523,0.002678,0.000431,0.002938
4361000,0.0324,0.013523,0.002678,0.000431,0.002586
4362000,0.0324,0.013523,0.002678,0.000431,0.002938
4363000,0.0324,0.013523,0.002678,0.000431,0.002938
4364000,0.0324,0.013523,0.002678,0.000431,0.003291
4365000,0.0324,0.013523,0.002678,0.000431,0.003173
4366000,0.0324,0.013523,0.002678,0.000431,0.002938
4367000,0.0324,0.013523,0.002678,0.000431,0.002938
4368000,0.0324,0.013523,0.002678,0.000431,0.002703
4369000,0.0324,0.013523,0.002678,0.000431,0.002586
4370000,0.0324,0.013523,0.002678,0.000431,0.002821
4371000,0.0324,0.013523,0.002678,0.000431,0.002351
4372000,0.0324,0.013523,0.002678,0.000431,0.003291
4373000,0.0324,0.013523,0.002678,0.000431,0.003056
4374000,0.0324,0.013523,0.002678,0.000431,0.002351
4375000,0.0324,0.013523,0.002678,0.000431,0.002821
4376000,0.0324,0.013523,0.002678,0.000431,0.002586
4377000,0.0324,0.013523,0.002678,0.000431,0.003056
4378000,0.0324,0.013523,0.002678,0.000431,0.002821
4379000,0.0324,0.013523,0.002678,0.000431,0.002468
4380000,0.0324,0.013523,0.002678,0.000431,0.002703
4381000,0.0324,0.013523,0.002678,0.000431,0.003056
4382000,0.0324,0.013523,0.002678,0.000431,0.002233
4383000,0.0324,0.013523,0.002678,0.000431,0.002468
4384000,0.0324,0.013523,0.002678,0.000431,0.003056
4385000,0.0324,0.013523,0.002678,0.000431,0.002586
4386000,0.0324,0.013523,0.002678,0.000431,0.003173
4387000,0.0324,0.013523,0.002678,0.000431,0.003056
4388000,0.0324,0.013523,0.002678,0.000431,0.002703
4389000,0.0324,0.013523,0.002678,0.000431,0.003173
4390000,0.0324,0.013523,0.002678,0.000431,0.002703
4391000,0.0324,0.013523,0.002678,0.000431,0.002468
4392000,0.0324,0.013523,0.002678,0.000431,0.003056
4393000,0.0324,0.013523,0.002678,0.000431,0.002938
4394000,0.0324,0.013523,0.002678,0.000431,0.002586
4395000,0.0324,0.013523,0.002678,0.000431,0.002821
4396000,0.0324,0.013523,0.002678,0.000431,0.002938
4397000,0.0324,0.013523,0.002678,0.000431,0.002821
4398000,0.0324,0.013523,0.002678,0.000431,0.002468
4399000,0.0324,0.013523,0.002678,0.000431,0.002938
4400000,0.0324,0.013523,0.002678,0.000431,0.002703
4401000,0.0324,0.013523,0.002678,0.000431,0.002468
4402000,0.0324,0.013523,0.002678,0.000431,0.002821
4403000,0.0324,0.013523,0.002678,0.000431,0.002938
4404000,0.0324,0.013523,0.002678,0.000431,0.002586
4405000,0.0324,0.013523,0.002678,0.000431,0.002821
4406000,0.0324,0.013523,0.002678,0.000431,0.002821
4407000,0.0324,0.013523,0.002678,0.000431,0.003173
4408000,0.0324,0.013523,0.002678,0.000431,0.002938
4409000,0.0324,0.013523,0.002678,0.000431,0.002703
4410000,0.0324,0.013523,0.002678,0.000431,0.002821
4411000,0.0324,0.013523,0.002678,0.000431,0.002586
4412000,0.0324,0.013523,0.002678,0.000431,0.002586
4413000,0.0324,0.013523,0.002678,0.000431,0.002821
4414000,0.0324,0.013523,0.002678,0.000431,0.002703
4415000,0.0324,0.013523,0.002678,0.000431,0.002468
4416000,0.0324,0.013523,0.002678,0.000431,0.002821
4417000,0.0324,0.013523,0.002678,0.000431,0.003173
4418000,0.0324,0.013523,0.002678,0.000431,0.002586
4419000,0.0324,0.013523,0.002678,0.000431,0.002821
4420000,0.0324,0.013523,0.002678,0.000431,0.002351
4421000,0.0324,0.013523,0.002678,0.000431,0.002586
4422000,0.0324,0.013523,0.002678,0.000431,0.002938
4423000,0.0324,0.013523,0.002678,0.000431,0.003173
4424000,0.0324,0.013523,0.002678,0.000431,0.002938
4425000,0.0324,0.013523,0.002678,0.000431,0.002821
4426000,0.0324,0.013523,0.002678,0.000431,0.002586
4427000,0.0324,0.013523,0.002678,0.000431,0.002821
4428000,0.0324,0.013523,0.002678,0.000431,0.002821
4429000,0.0324,0.013523,0.002678,0.000431,0.002586
4430000,0.0324,0.013523,0.002678,0.000431,0.002586
4431000,0.0324,0.013523,0.002678,0.000431,0.003173
4432000,0.0324,0.013523,0.002678,0.000431,0.002938
4433000,0.0324,0.013523,0.002678,0.000431,0.002586
4434000,0.0324,0.013523,0.002678,0.000431,0.002468
4435000,0.0324,0.013523,0.002678,0.000431,0.002938
4436000,0.0324,0.013523,0.002678,0.000431,0.002703
4437000,0.0324,0.013523,0.002678,0.000431,0.003056
4438000,0.0324,0.013523,0.002678,0.000431,0.002586
4439000,0.0324,0.013523,0.002678,0.000431,0.002468
4440000,0.0324,0.013523,0.002678,0.000431,0.003173
4441000,0.0324,0.013523,0.002678,0.000431,0.002233
4442000,0.0324,0.013523,0.002678,0.000431,0.002586
4443000,0.0324,0.013523,0.002678,0.000431,0.002703
4444000,0.0324,0.013523,0.002678,0.000431,0.002821
4445000,0.0324,0.013523,0.002678,0.000431,0.003056
4446000,0.0324,0.013523,0.002678,0.000431,0.002586
4447000,0.0324,0.013523,0.002678,0.000431,0.002586
4448000,0.0324,0.013523,0.002678,0.000431,0.002938
4449000,0.0324,0.013523,0.002678,0.000431,0.002821
4450000,0.0324,0.013523,0.002678,0.000431,0.003056
4451000,0.0324,0.013523,0.002678,0.000431,0.002703
4452000,0.0324,0.013523,0.002678,0.000431,0.002586
4453000,0.0324,0.013523,0.002678,0.000431,0.002351
4454000,0.0324,0.013523,0.002678,0.000431,0.002586
4455000,0.0324,0.013523,0.002678,0.000431,0.002703
4456000,0.0324,0.013523,0.002678,0.000431,0.002821
4457000,0.0324,0.013523,0.002678,0.000431,0.002468
4458000,0.0324,0.013523,0.002678,0.000431,0.002703
4459000,0.0324,0.013523,0.002678,0.000431,0.002586
4460000,0.0324,0.013523,0.002678,0.000431,0.002351
4461000,0.0324,0.013523,0.002678,0.000431,0.002938
4462000,0.0324,0.013523,0.002678,0.000431,0.002468
4463000,0.0324,0.013523,0.002678,0.000431,0.003056
4464000,0.0324,0.013523,0.002678,0.000431,0.002703
4465000,0.0324,0.013523,0.002678,0.000431,0.002703
4466000,0.0324,0.013523,0.002678,0.000431,0.002468
4467000,0.0324,0.013523,0.002678,0.000431,0.002938
4468000,0.0324,0.013523,0.002678,0.000431,0.002703
4469000,0.0324,0.013523,0.002678,0.000431,0.002586
4470000,0.0324,0.013523,0.002678,0.000431,0.003291
4471000,0.0324,0.013523,0.002678,0.000431,0.002938
4472000,0.0324,0.013523,0.002678,0.000431,0.002586
4473000,0.0324,0.013523,0.002678,0.000431,0.002938
4474000,0.0324,0.013523,0.002678,0.000431,0.002351
4475000,0.0324,0.013523,0.002678,0.000431,0.002821
4476000,0.0324,0.013523,0.002678,0.000431,0.002586
4477000,0.0324,0.013523,0.002678,0.000431,0.002938
4478000,0.0324,0.013523,0.002678,0.000431,0.002821
4479000,0.0324,0.013523,0.002678,0.000431,0.002468
4480000,0.0324,0.013523,0.002678,0.000431,0.002586
4481000,0.0324,0.013523,0.002678,0.000431,0.002703
4482000,0.0324,0.013523,0.002678,0.000431,0.002468
4483000,0.0324,0.013523,0.002678,0.000431,0.002586
4484000,0.0324,0.013523,0.002678,0.000431,0.002468
4485000,0.0324,0.013523,0.002678,0.000431,0.002703
4486000,0.0324,0.013523,0.002678,0.000431,0.002821
4487000,0.0324,0.013523,0.002678,0.000431,0.002703
4488000,0.0324,0.013523,0.002678,0.000431,0.002351
4489000,0.0324,0.013523,0.002678,0.000431,0.002821
4490000,0.0324,0.013523,0.002678,0.000431,0.002468
4491000,0.0324,0.013523,0.002678,0.000431,0.002468
4492000,0.0324,0.013523,0.002678,0.000431,0.002821
4493000,0.0324,0.013523,0.002678,0.000431,0.002938
4494000,0.0324,0.013523,0.002678,0.000431,0.002233
4495000,0.0324,0.013523,0.002678,0.000431,0.002351
4496000,0.0324,0.013523,0.002678,0.000431,0.002821
4497000,0.0324,0.013523,0.002678,0.000431,0.002703
4498000,0.0324,0.013523,0.002678,0.000431,0.002586
4499000,0.0324,0.013523,0.002678,0.000431,0.003173
4500000,0.0324,0.013523,0.002678,0.000431,0.002586
4501000,0.0324,0.013523,0.002678,0.000431,0.002821
4502000,0.0324,0.013523,0.002678,0.000431,0.002703
4503000,0.0324,0.013523,0.002678,0.000431,0.002821
4504000,0.0324,0.013523,0.002678,0.000431,0.002586
4505000,0.0324,0.013523,0.002678,0.000431,0.003056
4506000,0.0324,0.013523,0.002678,0.000431,0.002468
4507000,0.0324,0.013523,0.002678,0.000431,0.002233
4508000,0.0324,0.013523,0.002678,0.000431,0.002586
4509000,0.0324,0.013523,0.002678,0.000431,0.002703
4510000,0.0324,0.013523,0.002678,0.000431,0.003173
4511000,0.0324,0.013523,0.002678,0.000431,0.002938
4512000,0.0324,0.013523,0.002678,0.000431,0.002821
4513000,0.0324,0.013523,0.002678,0.000431,0.002938
4514000,0.0324,0.013523,0.002678,0.000431,0.002703
4515000,0.0324,0.013523,0.002678,0.000431,0.002586
4516000,0.0324,0.013523,0.002678,0.000431,0.003056
4517000,0.0324,0.013523,0.002678,0.000431,0.002821
4518000,0.0324,0.013523,0.002678,0.000431,0.002938
4519000,0.0324,0.013523,0.002678,0.000431,0.003173
4520000,0.0324,0.013523,0.002678,0.000431,0.002703
4521000,0.0324,0.013523,0.002678,0.000431,0.003056
4522000,0.0324,0.013523,0.002678,0.000431,0.002821
4523000,0.0324,0.013523,0.002678,0.000431,0.003056
4524000,0.0324,0.013523,0.002678,0.000431,0.002821
4525000,0.0324,0.013523,0.002678,0.000431,0.002586
4526000,0.0324,0.013523,0.002678,0.000431,0.002703
4527000,0.0324,0.013523,0.002678,0.000431,0.003056
4528000,0.0324,0.013523,0.002678,0.000431,0.003056
4529000,0.0324,0.013523,0.002678,0.000431,0.002821
4530000,0.0324,0.013523,0.002678,0.000431,0.002821
4531000,0.0324,0.013523,0.002678,0.000431,0.002586
4532000,0.0324,0.013523,0.002678,0.000431,0.002938
4533000,0.0324,0.013523,0.002678,0.000431,0.003056
4534000,0.0324,0.013523,0.002678,0.000431,0.002703
4535000,0.0324,0.013523,0.002678,0.000431,0.002821
4536000,0.0324,0.013523,0.002678,0.000431,0.002703
4537000,0.0324,0.013523,0.002678,0.000431,0.002938
4538000,0.0324,0.013523,0.002678,0.000431,0.002703
4539000,0.0324,0.013523,0.002678,0.000431,0.002586
4540000,0.0324,0.013523,0.002678,0.000431,0.002938
4541000,0.0324,0.013523,0.002678,0.000431,0.003291
4542000,0.0324,0.013523,0.002678,0.000431,0.002586
4543000,0.0324,0.013523,0.002678,0.000431,0.002938
4544000,0.0324,0.013523,0.002678,0.000431,0.002703
4545000,0.0324,0.013523,0.002678,0.000431,0.002938
4546000,0.0324,0.013523,0.002678,0.000431,0.002586
4547000,0.0324,0.013523,0.002678,0.000431,0.002821
4548000,0.0324,0.013523,0.002678,0.000431,0.002586
4549000,0.0324,0.013523,0.002678,0.000431,0.002586
4550000,0.0324,0.013523,0.002678,0.000431,0.002468
4551000,0.0324,0.013523,0.002678,0.000431,0.002703
4552000,0.0324,0.013523,0.002678,0.000431,0.002938
4553000,0.0324,0.013523,0.002678,0.000431,0.002468
4554000,0.0324,0.013523,0.002678,0.000431,0.002821
4555000,0.0324,0.013523,0.002678,0.000431,0.002586
4556000,0.0324,0.013523,0.002678,0.000431,0.002821
4557000,0.0324,0.013523,0.002678,0.000431,0.003173
4558000,0.0324,0.013523,0.002678,0.000431,0.002703
4559000,0.0324,0.013523,0.002678,0.000431,0.003056
4560000,0.0324,0.013523,0.002678,0.000431,0.002821
4561000,0.0324,0.013523,0.002678,0.000431,0.002586
4562000,0.0324,0.013523,0.002678,0.000431,0.002821
4563000,0.0324,0.013523,0.002678,0.000431,0.002821
4564000,0.0324,0.013523,0.002678,0.000431,0.002703
4565000,0.0324,0.013523,0.002678,0.000431,0.002703
4566000,0.0324,0.013523,0.002678,0.000431,0.002586
4567000,0.0324,0.013523,0.002678,0.000431,0.002821
4568000,0.0324,0.013523,0.002678,0.000431,0.002703
4569000,0.0324,0.013523,0.002678,0.000431,0.002821
4570000,0.0324,0.013523,0.002678,0.000431,0.003056
4571000,0.0324,0.013523,0.002678,0.000431,0.002938
4572000,0.0324,0.013523,0.002678,0.000431,0.002468
4573000,0.0324,0.013523,0.002678,0.000431,0.002821
4574000,0.0324,0.013523,0.002678,0.000431,0.002938
4575000,0.0324,0.013523,0.002678,0.000431,0.003056
4576000,0.0324,0.013523,0.002678,0.000431,0.002938
4577000,0.0324,0.013523,0.002678,0.000431,0.003056
4578000,0.0324,0.013523,0.002678,0.000431,0.002703
4579000,0.0324,0.013523,0.002678,0.000431,0.002821
4580000,0.0324,0.013523,0.002678,0.000431,0.002703
4581000,0.0324,0.013523,0.002678,0.000431,0.002468
4582000,0.0324,0.013523,0.002678,0.000431,0.003056
4583000,0.0324,0.013523,0.002678,0.000431,0.002821
4584000,0.0324,0.013523,0.002678,0.000431,0.002821
4585000,0.0324,0.013523,0.002678,0.000431,0.002821
4586000,0.0324,0.013523,0.002678,0.000431,0.002233
4587000,0.0324,0.013523,0.002678,0.000431,0.002703
4588000,0.0324,0.013523,0.002678,0.000431,0.002938
4589000,0.0324,0.013523,0.002678,0.000431,0.002233
4590000,0.0324,0.013523,0.002678,0.000431,0.002938
4591000,0.0324,0.013523,0.002678,0.000431,0.002821
4592000,0.0324,0.013523,0.002678,0.000431,0.003056
4593000,0.0324,0.013523,0.002678,0.000431,0.002703
4594000,0.0324,0.013523,0.002678,0.000431,0.002468
4595000,0.0324,0.013523,0.002678,0.000431,0.002703
4596000,0.0324,0.013523,0.002678,0.000431,0.002821
4597000,0.0324,0.013523,0.002678,0.000431,0.002821
4598000,0.0324,0.013523,0.002678,0.000431,0.002938
4599000,0.0324,0.013523,0.002678,0.000431,0.002938
4600000,0.0324,0.013523,0.002678,0.000431,0.002821
4601000,0.0324,0.013523,0.002678,0.000431,0.002586
4602000,0.0324,0.013523,0.002678,0.000431,0.002938
4603000,0.0324,0.013523,0.002678,0.000431,0.002703
4604000,0.0324,0.013523,0.002678,0.000431,0.002586
4605000,0.0324,0.013523,0.002678,0.000431,0.002821
4606000,0.0324,0.013523,0.002678,0.000431,0.002586
4607000,0.0324,0.013523,0.002678,0.000431,0.002468
4608000,0.0324,0.013523,0.002678,0.000431,0.002703
4609000,0.0324,0.013523,0.002678,0.000431,0.002586
4610000,0.0324,0.013523,0.002678,0.000431,0.002703
4611000,0.0324,0.013523,0.002678,0.000431,0.002938
4612000,0.0324,0.013523,0.002678,0.000431,0.002938
4613000,0.0324,0.013523,0.002678,0.000431,0.002821
4614000,0.0324,0.013523,0.002678,0.000431,0.002938
4615000,0.0324,0.013523,0.002678,0.000431,0.002586
4616000,0.0324,0.013523,0.002678,0.000431,0.002938
4617000,0.0324,0.013523,0.002678,0.000431,0.002821
4618000,0.0324,0.013523,0.002678,0.000431,0.003291
4619000,0.0324,0.013523,0.002678,0.000431,0.002586
4620000,0.0324,0.013523,0.002678,0.000431,0.002703
4621000,0.0324,0.013523,0.002678,0.000431,0.002586
4622000,0.0324,0.013523,0.002678,0.000431,0.002703
4623000,0.0324,0.013523,0.002678,0.000431,0.002586
4624000,0.0324,0.013523,0.002678,0.000431,0.002586
4625000,0.0324,0.013523,0.002678,0.000431,0.002821
4626000,0.0324,0.013523,0.002678,0.000431,0.002586
4627000,0.0324,0.013523,0.002678,0.000431,0.002938
4628000,0.0324,0.013523,0.002678,0.000431,0.002821
4629000,0.0324,0.013523,0.002678,0.000431,0.002351
4630000,0.0324,0.013523,0.002678,0.000431,0.003173
4631000,0.0324,0.013523,0.002678,0.000431,0.002938
4632000,0.0324,0.013523,0.002678,0.000431,0.002703
4633000,0.0324,0.013523,0.002678,0.000431,0.003056
4634000,0.0324,0.013523,0.002678,0.000431,0.002586
4635000,0.0324,0.013523,0.002678,0.000431,0.003056
4636000,0.0324,0.013523,0.002678,0.000431,0.002821
4637000,0.0324,0.013523,0.002678,0.000431,0.003056
4638000,0.0324,0.013523,0.002678,0.000431,0.002703
4639000,0.0324,0.013523,0.002678,0.000431,0.002821
4640000,0.0324,0.013523,0.002678,0.000431,0.002703
4641000,0.0324,0.013523,0.002678,0.000431,0.003408
4642000,0.0324,0.013523,0.002678,0.000431,0.002821
4643000,0.0324,0.013523,0.002678,0.000431,0.002821
4644000,0.0324,0.013523,0.002678,0.000431,0.002821
4645000,0.0324,0.013523,0.002678,0.000431,0.002116
4646000,0.0324,0.013523,0.002678,0.000431,0.002703
4647000,0.0324,0.013523,0.002678,0.000431,0.002703
4648000,0.0324,0.013523,0.002678,0.000431,0.002938
4649000,0.0324,0.013523,0.002678,0.000431,0.002468
4650000,0.0324,0.013523,0.002678,0.000431,0.003056
4651000,0.0324,0.013523,0.002678,0.000431,0.003173
4652000,0.0324,0.013523,0.002678,0.000431,0.002938
4653000,0.0324,0.013523,0.002678,0.000431,0.002821
4654000,0.0324,0.013523,0.002678,0.000431,0.002938
4655000,0.0324,0.013523,0.002678,0.000431,0.002586
4656000,0.0324,0.013523,0.002678,0.000431,0.002703
4657000,0.0324,0.013523,0.002678,0.000431,0.003056
4658000,0.0324,0.013523,0.002678,0.000431,0.002468
4659000,0.0324,0.013523,0.002678,0.000431,0.002351
4660000,0.0324,0.013523,0.002678,0.000431,0.002116
4661000,0.0324,0.013523,0.002678,0.000431,0.002468
4662000,0.0324,0.013523,0.002678,0.000431,0.003173
4663000,0.0324,0.013523,0.002678,0.000431,0.002586
4664000,0.0324,0.013523,0.002678,0.000431,0.002821
4665000,0.0324,0.013523,0.002678,0.000431,0.002703
4666000,0.0324,0.013523,0.002678,0.000431,0.002938
4667000,0.0324,0.013523,0.002678,0.000431,0.002821
4668000,0.0324,0.013523,0.002678,0.000431,0.003056
4669000,0.0324,0.013523,0.002678,0.000431,0.002938
4670000,0.0324,0.013523,0.002678,0.000431,0.003291
4671000,0.0324,0.013523,0.002678,0.000431,0.002703
4672000,0.0324,0.013523,0.002678,0.000431,0.002703
4673000,0.0324,0.013523,0.002678,0.000431,0.002351
4674000,0.0324,0.013523,0.002678,0.000431,0.002938
4675000,0.0324,0.013523,0.002678,0.000431,0.003056
4676000,0.0324,0.013523,0.002678,0.000431,0.002938
4677000,0.0324,0.013523,0.002678,0.000431,0.002703
4678000,0.0324,0.013523,0.002678,0.000431,0.002938
4679000,0.0324,0.013523,0.002678,0.000431,0.002586
4680000,0.0324,0.013523,0.002678,0.000431,0.003173
4681000,0.0324,0.013523,0.002678,0.000431,0.002938
4682000,0.0324,0.013523,0.002678,0.000431,0.002703
4683000,0.0324,0.013523,0.002678,0.000431,0.003173
4684000,0.0324,0.013523,0.002678,0.000431,0.003056
4685000,0.0324,0.013523,0.002678,0.000431,0.002468
4686000,0.0324,0.013523,0.002678,0.000431,0.002468
4687000,0.0324,0.013523,0.002678,0.000431,0.002703
4688000,0.0324,0.013523,0.002678,0.000431,0.003173
4689000,0.0324,0.013523,0.002678,0.000431,0.003056
4690000,0.0324,0.013523,0.002678,0.000431,0.002703
4691000,0.0324,0.013523,0.002678,0.000431,0.002586
4692000,0.0324,0.013523,0.002678,0.000431,0.003173
4693000,0.0324,0.013523,0.002678,0.000431,0.002703
4694000,0.0324,0.013523,0.002678,0.000431,0.002821
4695000,0.0324,0.013523,0.002678,0.000431,0.003056
4696000,0.0324,0.013523,0.002678,0.000431,0.002821
4697000,0.0324,0.013523,0.002678,0.000431,0.003291
4698000,0.0324,0.013523,0.002678,0.000431,0.002938
4699000,0.0324,0.013523,0.002678,0.000431,0.003173
4700000,0.0324,0.013523,0.002678,0.000431,0.003056
4701000,0.0324,0.013523,0.002678,0.000431,0.002938
4702000,0.0324,0.013523,0.002678,0.000431,0.002938
4703000,0.0324,0.013523,0.002678,0.000431,0.003056
4704000,0.0324,0.013523,0.002678,0.000431,0.002938
4705000,0.0324,0.013523,0.002678,0.000431,0.002938
4706000,0.0324,0.013523,0.002678,0.000431,0.002821
4707000,0.0324,0.013523,0.002678,0.000431,0.003173
4708000,0.0324,0.013523,0.002678,0.000431,0.002586
4709000,0.0324,0.013523,0.002678,0.000431,0.003056
4710000,0.0324,0.013523,0.002678,0.000431,0.002703
4711000,0.0324,0.013523,0.002678,0.000431,0.003173
4712000,0.0324,0.013523,0.002678,0.000431,0.003056
4713000,0.0324,0.013523,0.002678,0.000431,0.002821
4714000,0.0324,0.013523,0.002678,0.000431,0.002821
4715000,0.0324,0.013523,0.002678,0.000431,0.002821
4716000,0.0324,0.013523,0.002678,0.000431,0.002703
4717000,0.0324,0.013523,0.002678,0.000431,0.002821
4718000,0.0324,0.013523,0.002678,0.000431,0.002821
4719000,0.0324,0.013523,0.002678,0.000431,0.002821
4720000,0.0324,0.013523,0.002678,0.000431,0.002703
4721000,0.0324,0.013523,0.002678,0.000431,0.003173
4722000,0.0324,0.013523,0.002678,0.000431,0.002586
4723000,0.0324,0.013523,0.002678,0.000431,0.003056
4724000,0.0324,0.013523,0.002678,0.000431,0.002586
4725000,0.0324,0.013523,0.002678,0.000431,0.002938
4726000,0.0324,0.013523,0.002678,0.000431,0.003056
4727000,0.0324,0.013523,0.002678,0.000431,0.002938
4728000,0.0324,0.013523,0.002678,0.000431,0.003056
4729000,0.0324,0.013523,0.002678,0.000431,0.002821
4730000,0.0324,0.013523,0.002678,0.000431,0.002703
4731000,0.0324,0.013523,0.002678,0.000431,0.002938
4732000,0.0324,0.013523,0.002678,0.000431,0.003173
4733000,0.0324,0.013523,0.002678,0.000431,0.002821
4734000,0.0324,0.013523,0.002678,0.000431,0.003173
4735000,0.0324,0.013523,0.002678,0.000431,0.003056
4736000,0.0324,0.013523,0.002678,0.000431,0.002938
4737000,0.0324,0.013523,0.002678,0.000431,0.002468
4738000,0.0324,0.013523,0.002678,0.000431,0.002821
4739000,0.0324,0.013523,0.002678,0.000431,0.002938
4740000,0.0324,0.013523,0.002678,0.000431,0.003056
4741000,0.0324,0.013523,0.002678,0.000431,0.003056
4742000,0.0324,0.013523,0.002678,0.000431,0.002821
4743000,0.0324,0.013523,0.002678,0.000431,0.002468
4744000,0.0324,0.013523,0.002678,0.000431,0.002821
4745000,0.0324,0.013523,0.002678,0.000431,0.003173
4746000,0.0324,0.013523,0.002678,0.000431,0.002938
4747000,0.0324,0.013523,0.002678,0.000431,0.002821
4748000,0.0324,0.013523,0.002678,0.000431,0.002821
4749000,0.0324,0.013523,0.002678,0.000431,0.002703
4750000,0.0324,0.013523,0.002678,0.000431,0.002468
4751000,0.0324,0.013523,0.002678,0.000431,0.002468
4752000,0.0324,0.013523,0.002678,0.000431,0.002703
4753000,0.0324,0.013523,0.002678,0.000431,0.003056
4754000,0.0324,0.013523,0.002678,0.000431,0.002233
4755000,0.0324,0.013523,0.002678,0.000431,0.002351
4756000,0.0324,0.013523,0.002678,0.000431,0.002586
4757000,0.0324,0.013523,0.002678,0.000431,0.002351
4758000,0.0324,0.013523,0.002678,0.000431,0.003056
4759000,0.0324,0.013523,0.002678,0.000431,0.002821
4760000,0.0324,0.013523,0.002678,0.000431,0.002821
4761000,0.0324,0.013523,0.002678,0.000431,0.002351
4762000,0.0324,0.013523,0.002678,0.000431,0.002703
4763000,0.0324,0.013523,0.002678,0.000431,0.003056
4764000,0.0324,0.013523,0.002678,0.000431,0.002703
4765000,0.0324,0.013523,0.002678,0.000431,0.002938
4766000,0.0324,0.013523,0.002678,0.000431,0.003173
4767000,0.0324,0.013523,0.002678,0.000431,0.002586
4768000,0.0324,0.013523,0.002678,0.000431,0.002821
4769000,0.0324,0.013523,0.002678,0.000431,0.003056
4770000,0.0324,0.013523,0.002678,0.000431,0.002821
4771000,0.0324,0.013523,0.002678,0.000431,0.002821
4772000,0.0324,0.013523,0.002678,0.000431,0.002938
4773000,0.0324,0.013523,0.002678,0.000431,0.002938
4774000,0.0324,0.013523,0.002678,0.000431,0.002821
4775000,0.0324,0.013523,0.002678,0.000431,0.003291
4776000,0.0324,0.013523,0.002678,0.000431,0.002703
4777000,0.0324,0.013523,0.002678,0.000431,0.002821
4778000,0.0324,0.013523,0.002678,0.000431,0.002468
4779000,0.0324,0.013523,0.002678,0.000431,0.003173
4780000,0.0324,0.013523,0.002678,0.000431,0.003056
4781000,0.0324,0.013523,0.002678,0.000431,0.002703
4782000,0.0324,0.013523,0.002678,0.000431,0.002821
4783000,0.0324,0.013523,0.002678,0.000431,0.002468
4784000,0.0324,0.013523,0.002678,0.000431,0.002938
4785000,0.0324,0.013523,0.002678,0.000431,0.002586
4786000,0.0324,0.013523,0.002678,0.000431,0.002703
4787000,0.0324,0.013523,0.002678,0.000431,0.003173
4788000,0.0324,0.013523,0.002678,0.000431,0.002821
4789000,0.0324,0.013523,0.002678,0.000431,0.003173
4790000,0.0324,0.013523,0.002678,0.000431,0.002938
4791000,0.0324,0.013523,0.002678,0.000431,0.003291
4792000,0.0324,0.013523,0.002678,0.000431,0.002468
4793000,0.0324,0.013523,0.002678,0.000431,0.002821
4794000,0.0324,0.013523,0.002678,0.000431,0.002821
4795000,0.0324,0.013523,0.002678,0.000431,0.002938
4796000,0.0324,0.013523,0.002678,0.000431,0.003056
4797000,0.0324,0.013523,0.002678,0.000431,0.002586
4798000,0.0324,0.013523,0.002678,0.000431,0.002703
4799000,0.0324,0.013523,0.002678,0.000431,0.002233
4800000,0.0324,0.013523,0.002678,0.000431,0.003056
4801000,0.0324,0.013523,0.002678,0.000431,0.002703
4802000,0.0324,0.013523,0.002678,0.000431,0.002586
4803000,0.0324,0.013523,0.002678,0.000431,0.003173
4804000,0.0324,0.013523,0.002678,0.000431,0.002938
4805000,0.0324,0.013523,0.002678,0.000431,0.003291
4806000,0.0324,0.013523,0.002678,0.000431,0.002703
4807000,0.0324,0.013523,0.002678,0.000431,0.003173
4808000,0.0324,0.013523,0.002678,0.000431,0.002938
4809000,0.0324,0.013523,0.002678,0.000431,0.002703
4810000,0.0324,0.013523,0.002678,0.000431,0.003291
4811000,0.0324,0.013523,0.002678,0.000431,0.002703
4812000,0.0324,0.013523,0.002678,0.000431,0.003408
4813000,0.0324,0.013523,0.002678,0.000431,0.002468
4814000,0.0324,0.013523,0.002678,0.000431,0.002468
4815000,0.0324,0.013523,0.002678,0.000431,0.002821
4816000,0.0324,0.013523,0.002678,0.000431,0.002821
4817000,0.0324,0.013523,0.002678,0.000431,0.002703
4818000,0.0324,0.013523,0.002678,0.000431,0.002938
4819000,0.0324,0.013523,0.002678,0.000431,0.002586
4820000,0.0324,0.013523,0.002678,0.000431,0.002703
4821000,0.0324,0.013523,0.002678,0.000431,0.002586
4822000,0.0324,0.013523,0.002678,0.000431,0.003056
4823000,0.0324,0.013523,0.002678,0.000431,0.002703
4824000,0.0324,0.013523,0.002678,0.000431,0.002703
4825000,0.0324,0.013523,0.002678,0.000431,0.002586
4826000,0.0324,0.013523,0.002678,0.000431,0.002938
4827000,0.0324,0.013523,0.002678,0.000431,0.002468
4828000,0.0324,0.013523,0.002678,0.000431,0.003056
4829000,0.0324,0.013523,0.002678,0.000431,0.002703
4830000,0.0324,0.013523,0.002678,0.000431,0.002703
4831000,0.0324,0.013523,0.002678,0.000431,0.002351
4832000,0.0324,0.013523,0.002678,0.000431,0.002703
4833000,0.0324,0.013523,0.002678,0.000431,0.002821
4834000,0.0324,0.013523,0.002678,0.000431,0.002703
4835000,0.0324,0.013523,0.002678,0.000431,0.002351
4836000,0.0324,0.013523,0.002678,0.000431,0.002703
4837000,0.0324,0.013523,0.002678,0.000431,0.002586
4838000,0.0324,0.013523,0.002678,0.000431,0.003173
4839000,0.0324,0.013523,0.002678,0.000431,0.002703
4840000,0.0324,0.013523,0.002678,0.000431,0.002703
4841000,0.0324,0.013523,0.002678,0.000431,0.002586
4842000,0.0324,0.013523,0.002678,0.000431,0.002468
4843000,0.0324,0.013523,0.002678,0.000431,0.002703
4844000,0.0324,0.013523,0.002678,0.000431,0.002586
4845000,0.0324,0.013523,0.002678,0.000431,0.002703
4846000,0.0324,0.013523,0.002678,0.000431,0.002703
4847000,0.0324,0.013523,0.002678,0.000431,0.002586
4848000,0.0324,0.013523,0.002678,0.000431,0.002586
4849000,0.0324,0.013523,0.002678,0.000431,0.002468
4850000,0.0324,0.013523,0.002678,0.000431,0.002468
4851000,0.0324,0.013523,0.002678,0.000431,0.002586
4852000,0.0324,0.013523,0.002678,0.000431,0.002351
4853000,0.0324,0.013523,0.002678,0.000431,0.002703
4854000,0.0324,0.013523,0.002678,0.000431,0.002468
4855000,0.0324,0.013523,0.002678,0.000431,0.002938
4856000,0.0324,0.013523,0.002678,0.000431,0.002351
4857000,0.0324,0.013523,0.002678,0.000431,0.002586
4858000,0.0324,0.013523,0.002678,0.000431,0.002586
4859000,0.0324,0.013523,0.002678,0.000431,0.002586
4860000,0.0324,0.013523,0.002678,0.000431,0.002703
4861000,0.0324,0.013523,0.002678,0.000431,0.002586
4862000,0.0324,0.013523,0.002678,0.000431,0.002586
4863000,0.0324,0.013523,0.002678,0.000431,0.002468
4864000,0.0324,0.013523,0.002678,0.000431,0.002468
4865000,0.0324,0.013523,0.002678,0.000431,0.002938
4866000,0.0324,0.013523,0.002678,0.000431,0.002586
4867000,0.0324,0.013523,0.002678,0.000431,0.002351
4868000,0.0324,0.013523,0.002678,0.000431,0.002703
4869000,0.0324,0.013523,0.002678,0.000431,0.002703
4870000,0.0324,0.013523,0.002678,0.000431,0.002821
4871000,0.0324,0.013523,0.002678,0.000431,0.002351
4872000,0.0324,0.013523,0.002678,0.000431,0.002586
4873000,0.0324,0.013523,0.002678,0.000431,0.002821
4874000,0.0324,0.013523,0.002678,0.000431,0.002938
4875000,0.0324,0.013523,0.002678,0.000431,0.003056
4876000,0.0324,0.013523,0.002678,0.000431,0.002586
4877000,0.0324,0.013523,0.002678,0.000431,0.002821
4878000,0.0324,0.013523,0.002678,0.000431,0.002468
4879000,0.0324,0.013523,0.002678,0.000431,0.002821
4880000,0.0324,0.013523,0.002678,0.000431,0.002468
4881000,0.0324,0.013523,0.002678,0.000431,0.002821
4882000,0.0324,0.013523,0.002678,0.000431,0.002586
4883000,0.0324,0.013523,0.002678,0.000431,0.003056
4884000,0.0324,0.013523,0.002678,0.000431,0.002938
4885000,0.0324,0.013523,0.002678,0.000431,0.002821
4886000,0.0324,0.013523,0.002678,0.000431,0.002233
4887000,0.0324,0.013523,0.002678,0.000431,0.002821
4888000,0.0324,0.013523,0.002678,0.000431,0.002821
4889000,0.0324,0.013523,0.002678,0.000431,0.002938
4890000,0.0324,0.013523,0.002678,0.000431,0.002938
4891000,0.0324,0.013523,0.002678,0.000431,0.002586
4892000,0.0324,0.013523,0.002678,0.000431,0.002468
4893000,0.0324,0.013523,0.002678,0.000431,0.002586
4894000,0.0324,0.013523,0.002678,0.000431,0.002703
4895000,0.0324,0.013523,0.002678,0.000431,0.002821
4896000,0.0324,0.013523,0.002678,0.000431,0.002586
4897000,0.0324,0.013523,0.002678,0.000431,0.002586
4898000,0.0324,0.013523,0.002678,0.000431,0.002468
4899000,0.0324,0.013523,0.002678,0.000431,0.002586
4900000,0.0324,0.013523,0.002678,0.000431,0.002351
4901000,0.0324,0.013523,0.002678,0.000431,0.002938
4902000,0.0324,0.013523,0.002678,0.000431,0.002938
4903000,0.0324,0.013523,0.002678,0.000431,0.002821
4904000,0.0324,0.013523,0.002678,0.000431,0.002586
4905000,0.0324,0.013523,0.002678,0.000431,0.002703
4906000,0.0324,0.013523,0.002678,0.000431,0.002821
4907000,0.0324,0.013523,0.002678,0.000431,0.002703
4908000,0.0324,0.013523,0.002678,0.000431,0.002821
4909000,0.0324,0.013523,0.002678,0.000431,0.002468
4910000,0.0324,0.013523,0.002678,0.000431,0.002586
4911000,0.0324,0.013523,0.002678,0.000431,0.002821
4912000,0.0324,0.013523,0.002678,0.000431,0.002938
4913000,0.0324,0.013523,0.002678,0.000431,0.002938
4914000,0.0324,0.013523,0.002678,0.000431,0.002586
4915000,0.0324,0.013523,0.002678,0.000431,0.002586
4916000,0.0324,0.013523,0.002678,0.000431,0.002468
4917000,0.0324,0.013523,0.002678,0.000431,0.002586
4918000,0.0324,0.013523,0.002678,0.000431,0.002351
4919000,0.0324,0.013523,0.002678,0.000431,0.002821
4920000,0.0324,0.013523,0.002678,0.000431,0.003056
4921000,0.0324,0.013523,0.002678,0.000431,0.002468
4922000,0.0324,0.013523,0.002678,0.000431,0.003173
4923000,0.0324,0.013523,0.002678,0.000431,0.002586
4924000,0.0324,0.013523,0.002678,0.000431,0.002586
4925000,0.0324,0.013523,0.002678,0.000431,0.002586
4926000,0.0324,0.013523,0.002678,0.000431,0.002468
4927000,0.0324,0.013523,0.002678,0.000431,0.002821
4928000,0.0324,0.013523,0.002678,0.000431,0.002468
4929000,0.0324,0.013523,0.002678,0.000431,0.003056
4930000,0.0324,0.013523,0.002678,0.000431,0.002821
4931000,0.0324,0.013523,0.002678,0.000431,0.002703
4932000,0.0324,0.013523,0.002678,0.000431,0.002586
4933000,0.0324,0.013523,0.002678,0.000431,0.002938
4934000,0.0324,0.013523,0.002678,0.000431,0.002821
4935000,0.0324,0.013523,0.002678,0.000431,0.002586
4936000,0.0324,0.013523,0.002678,0.000431,0.003056
4937000,0.0324,0.013523,0.002678,0.000431,0.002468
4938000,0.0324,0.013523,0.002678,0.000431,0.002586
4939000,0.0324,0.013523,0.002678,0.000431,0.002821
4940000,0.0324,0.013523,0.002678,0.000431,0.002586
4941000,0.0324,0.013523,0.002678,0.000431,0.002586
4942000,0.0324,0.013523,0.002678,0.000431,0.002938
4943000,0.0324,0.013523,0.002678,0.000431,0.002703
4944000,0.0324,0.013523,0.002678,0.000431,0.002351
4945000,0.0324,0.013523,0.002678,0.000431,0.002703
4946000,0.0324,0.013523,0.002678,0.000431,0.002938
4947000,0.0324,0.013523,0.002678,0.000431,0.002586
4948000,0.0324,0.013523,0.002678,0.000431,0.002821
4949000,0.0324,0.013523,0.002678,0.000431,0.002938
4950000,0.0324,0.013523,0.002678,0.000431,0.003173
4951000,0.0324,0.013523,0.002678,0.000431,0.003173
4952000,0.0324,0.013523,0.002678,0.000431,0.002703
4953000,0.0324,0.013523,0.002678,0.000431,0.002821
4954000,0.0324,0.013523,0.002678,0.000431,0.003056
4955000,0.0324,0.013523,0.002678,0.000431,0.002938
4956000,0.0324,0.013523,0.002678,0.000431,0.002468
4957000,0.0324,0.013523,0.002678,0.000431,0.003056
4958000,0.0324,0.013523,0.002678,0.000431,0.002586
4959000,0.0324,0.013523,0.002678,0.000431,0.003056
4960000,0.0324,0.013523,0.002678,0.000431,0.002586
4961000,0.0324,0.013523,0.002678,0.000431,0.002821
4962000,0.0324,0.013523,0.002678,0.000431,0.002468
4963000,0.0324,0.013523,0.002678,0.000431,0.002233
4964000,0.0324,0.013523,0.002678,0.000431,0.002116
4965000,0.0324,0.013523,0.002678,0.000431,0.001880
4966000,0.0324,0.013523,0.002678,0.000431,0.001645
4967000,0.0324,0.013523,0.002678,0.000431,0.002116
4968000,0.0324,0.013523,0.002678,0.000431,0.001528
4969000,0.0324,0.013523,0.002678,0.000431,0.001410
4970000,0.0324,0.013523,0.002678,0.000431,0.001645
4971000,0.0324,0.013523,0.002678,0.000431,0.001645
4972000,0.0324,0.013523,0.002678,0.000431,0.001763
4973000,0.0324,0.013523,0.002678,0.000431,0.001880
4974000,0.0324,0.013523,0.002678,0.000431,0.001645
4975000,0.0324,0.013523,0.002678,0.000431,0.001528
4976000,0.0324,0.013523,0.002678,0.000431,0.001645
4977000,0.0324,0.013523,0.002678,0.000431,0.001998
4978000,0.0324,0.013523,0.002678,0.000431,0.001880
4979000,0.0324,0.013523,0.002678,0.000431,0.001645
4980000,0.0324,0.013523,0.002678,0.000431,0.001528
4981000,0.0324,0.013523,0.002678,0.000431,0.001645
4982000,0.0324,0.013523,0.002678,0.000431,0.001645
4983000,0.0324,0.013523,0.002678,0.000431,0.001293
4984000,0.0324,0.013523,0.002678,0.000431,0.001763
4985000,0.0324,0.013523,0.002678,0.000431,0.001880
4986000,0.0324,0.013523,0.002678,0.000431,0.001645
4987000,0.0324,0.013523,0.002678,0.000431,0.001528
4988000,0.0324,0.013523,0.002678,0.000431,0.001410
4989000,0.0324,0.013523,0.002678,0.000431,0.001528
4990000,0.0324,0.013523,0.002678,0.000431,0.001645
4991000,0.0324,0.013523,0.002678,0.000431,0.001880
4992000,0.0324,0.013523,0.002678,0.000431,0.001763
4993000,0.0324,0.013523,0.002678,0.000431,0.001528
4994000,0.0324,0.013523,0.002678,0.000431,0.001645
4995000,0.0324,0.013523,0.002678,0.000431,0.001645
4996000,0.0324,0.013523,0.002678,0.000431,0.001880
4997000,0.0324,0.013523,0.002678,0.000431,0.001880
4998000,0.0324,0.013523,0.002678,0.000431,0.001410
4999000,0.0324,0.013523,0.002678,0.000431,0.001645
