Cycle,Area(mm^2),PeakDynamic(W),SubthresholdLeakage(W),GateLeakage(W),RunTimeDynamic(W)
12000000,0.0324,0.013523,0.002678,0.000431,0.003526
12001000,0.0324,0.013523,0.002678,0.000431,0.003526
12002000,0.0324,0.013523,0.002678,0.000431,0.003291
12003000,0.0324,0.013523,0.002678,0.000431,0.003526
12004000,0.0324,0.013523,0.002678,0.000431,0.003643
12005000,0.0324,0.013523,0.002678,0.000431,0.003878
12006000,0.0324,0.013523,0.002678,0.000431,0.003173
12007000,0.0324,0.013523,0.002678,0.000431,0.004113
12008000,0.0324,0.013523,0.002678,0.000431,0.002703
12009000,0.0324,0.013523,0.002678,0.000431,0.004231
12010000,0.0324,0.013523,0.002678,0.000431,0.003056
12011000,0.0324,0.013523,0.002678,0.000431,0.003761
12012000,0.0324,0.013523,0.002678,0.000431,0.002938
12013000,0.0324,0.013523,0.002678,0.000431,0.004113
12014000,0.0324,0.013523,0.002678,0.000431,0.003761
12015000,0.0324,0.013523,0.002678,0.000431,0.002938
12016000,0.0324,0.013523,0.002678,0.000431,0.004113
12017000,0.0324,0.013523,0.002678,0.000431,0.003291
12018000,0.0324,0.013523,0.002678,0.000431,0.003643
12019000,0.0324,0.013523,0.002678,0.000431,0.003643
12020000,0.0324,0.013523,0.002678,0.000431,0.003408
12021000,0.0324,0.013523,0.002678,0.000431,0.003878
12022000,0.0324,0.013523,0.002678,0.000431,0.003056
12023000,0.0324,0.013523,0.002678,0.000431,0.003643
12024000,0.0324,0.013523,0.002678,0.000431,0.003878
12025000,0.0324,0.013523,0.002678,0.000431,0.003643
12026000,0.0324,0.013523,0.002678,0.000431,0.003526
12027000,0.0324,0.013523,0.002678,0.000431,0.003878
12028000,0.0324,0.013523,0.002678,0.000431,0.003878
12029000,0.0324,0.013523,0.002678,0.000431,0.003643
12030000,0.0324,0.013523,0.002678,0.000431,0.003643
12031000,0.0324,0.013523,0.002678,0.000431,0.003173
12032000,0.0324,0.013523,0.002678,0.000431,0.003761
12033000,0.0324,0.013523,0.002678,0.000431,0.003408
12034000,0.0324,0.013523,0.002678,0.000431,0.004113
12035000,0.0324,0.013523,0.002678,0.000431,0.003643
12036000,0.0324,0.013523,0.002678,0.000431,0.003996
12037000,0.0324,0.013523,0.002678,0.000431,0.003291
12038000,0.0324,0.013523,0.002678,0.000431,0.004113
12039000,0.0324,0.013523,0.002678,0.000431,0.002821
12040000,0.0324,0.013523,0.002678,0.000431,0.003761
12041000,0.0324,0.013523,0.002678,0.000431,0.003643
12042000,0.0324,0.013523,0.002678,0.000431,0.003408
12043000,0.0324,0.013523,0.002678,0.000431,0.003526
12044000,0.0324,0.013523,0.002678,0.000431,0.003643
12045000,0.0324,0.013523,0.002678,0.000431,0.003408
12046000,0.0324,0.013523,0.002678,0.000431,0.003526
12047000,0.0324,0.013523,0.002678,0.000431,0.003526
12048000,0.0324,0.013523,0.002678,0.000431,0.003996
12049000,0.0324,0.013523,0.002678,0.000431,0.003056
12050000,0.0324,0.013523,0.002678,0.000431,0.003291
12051000,0.0324,0.013523,0.002678,0.000431,0.003408
12052000,0.0324,0.013523,0.002678,0.000431,0.003761
12053000,0.0324,0.013523,0.002678,0.000431,0.003291
12054000,0.0324,0.013523,0.002678,0.000431,0.003761
12055000,0.0324,0.013523,0.002678,0.000431,0.003526
12056000,0.0324,0.013523,0.002678,0.000431,0.003761
12057000,0.0324,0.013523,0.002678,0.000431,0.003643
12058000,0.0324,0.013523,0.002678,0.000431,0.003761
12059000,0.0324,0.013523,0.002678,0.000431,0.003173
12060000,0.0324,0.013523,0.002678,0.000431,0.003878
12061000,0.0324,0.013523,0.002678,0.000431,0.003526
12062000,0.0324,0.013523,0.002678,0.000431,0.002938
12063000,0.0324,0.013523,0.002678,0.000431,0.004231
12064000,0.0324,0.013523,0.002678,0.000431,0.003173
12065000,0.0324,0.013523,0.002678,0.000431,0.003526
12066000,0.0324,0.013523,0.002678,0.000431,0.003408
12067000,0.0324,0.013523,0.002678,0.000431,0.003408
12068000,0.0324,0.013523,0.002678,0.000431,0.003878
12069000,0.0324,0.013523,0.002678,0.000431,0.003173
12070000,0.0324,0.013523,0.002678,0.000431,0.003761
12071000,0.0324,0.013523,0.002678,0.000431,0.003761
12072000,0.0324,0.013523,0.002678,0.000431,0.003643
12073000,0.0324,0.013523,0.002678,0.000431,0.003408
12074000,0.0324,0.013523,0.002678,0.000431,0.003643
12075000,0.0324,0.013523,0.002678,0.000431,0.003526
12076000,0.0324,0.013523,0.002678,0.000431,0.003173
12077000,0.0324,0.013523,0.002678,0.000431,0.003878
12078000,0.0324,0.013523,0.002678,0.000431,0.003761
12079000,0.0324,0.013523,0.002678,0.000431,0.003643
12080000,0.0324,0.013523,0.002678,0.000431,0.003761
12081000,0.0324,0.013523,0.002678,0.000431,0.003761
12082000,0.0324,0.013523,0.002678,0.000431,0.003643
12083000,0.0324,0.013523,0.002678,0.000431,0.003526
12084000,0.0324,0.013523,0.002678,0.000431,0.003408
12085000,0.0324,0.013523,0.002678,0.000431,0.003643
12086000,0.0324,0.013523,0.002678,0.000431,0.003761
12087000,0.0324,0.013523,0.002678,0.000431,0.003643
12088000,0.0324,0.013523,0.002678,0.000431,0.004113
12089000,0.0324,0.013523,0.002678,0.000431,0.003408
12090000,0.0324,0.013523,0.002678,0.000431,0.003996
12091000,0.0324,0.013523,0.002678,0.000431,0.003761
12092000,0.0324,0.013523,0.002678,0.000431,0.003643
12093000,0.0324,0.013523,0.002678,0.000431,0.003761
12094000,0.0324,0.013523,0.002678,0.000431,0.003291
12095000,0.0324,0.013523,0.002678,0.000431,0.004231
12096000,0.0324,0.013523,0.002678,0.000431,0.003408
12097000,0.0324,0.013523,0.002678,0.000431,0.003526
12098000,0.0324,0.013523,0.002678,0.000431,0.003408
12099000,0.0324,0.013523,0.002678,0.000431,0.003761
12100000,0.0324,0.013523,0.002678,0.000431,0.003761
12101000,0.0324,0.013523,0.002678,0.000431,0.003761
12102000,0.0324,0.013523,0.002678,0.000431,0.003643
12103000,0.0324,0.013523,0.002678,0.000431,0.003878
12104000,0.0324,0.013523,0.002678,0.000431,0.003291
12105000,0.0324,0.013523,0.002678,0.000431,0.003761
12106000,0.0324,0.013523,0.002678,0.000431,0.003643
12107000,0.0324,0.013523,0.002678,0.000431,0.003761
12108000,0.0324,0.013523,0.002678,0.000431,0.003291
12109000,0.0324,0.013523,0.002678,0.000431,0.003878
12110000,0.0324,0.013523,0.002678,0.000431,0.003408
12111000,0.0324,0.013523,0.002678,0.000431,0.003996
12112000,0.0324,0.013523,0.002678,0.000431,0.003408
12113000,0.0324,0.013523,0.002678,0.000431,0.003878
12114000,0.0324,0.013523,0.002678,0.000431,0.003408
12115000,0.0324,0.013523,0.002678,0.000431,0.003878
12116000,0.0324,0.013523,0.002678,0.000431,0.003173
12117000,0.0324,0.013523,0.002678,0.000431,0.003526
12118000,0.0324,0.013523,0.002678,0.000431,0.003056
12119000,0.0324,0.013523,0.002678,0.000431,0.003761
12120000,0.0324,0.013523,0.002678,0.000431,0.003056
12121000,0.0324,0.013523,0.002678,0.000431,0.003761
12122000,0.0324,0.013523,0.002678,0.000431,0.003761
12123000,0.0324,0.013523,0.002678,0.000431,0.003761
12124000,0.0324,0.013523,0.002678,0.000431,0.003173
12125000,0.0324,0.013523,0.002678,0.000431,0.003526
12126000,0.0324,0.013523,0.002678,0.000431,0.003526
12127000,0.0324,0.013523,0.002678,0.000431,0.003526
12128000,0.0324,0.013523,0.002678,0.000431,0.003291
12129000,0.0324,0.013523,0.002678,0.000431,0.003761
12130000,0.0324,0.013523,0.002678,0.000431,0.003526
12131000,0.0324,0.013523,0.002678,0.000431,0.002468
12132000,0.0324,0.013523,0.002678,0.000431,0.003643
12133000,0.0324,0.013523,0.002678,0.000431,0.003173
12134000,0.0324,0.013523,0.002678,0.000431,0.003643
12135000,0.0324,0.013523,0.002678,0.000431,0.003173
12136000,0.0324,0.013523,0.002678,0.000431,0.003643
12137000,0.0324,0.013523,0.002678,0.000431,0.003291
12138000,0.0324,0.013523,0.002678,0.000431,0.003526
12139000,0.0324,0.013523,0.002678,0.000431,0.003291
12140000,0.0324,0.013523,0.002678,0.000431,0.003761
12141000,0.0324,0.013523,0.002678,0.000431,0.003291
12142000,0.0324,0.013523,0.002678,0.000431,0.003526
12143000,0.0324,0.013523,0.002678,0.000431,0.003408
12144000,0.0324,0.013523,0.002678,0.000431,0.003291
12145000,0.0324,0.013523,0.002678,0.000431,0.003173
12146000,0.0324,0.013523,0.002678,0.000431,0.003878
12147000,0.0324,0.013523,0.002678,0.000431,0.003173
12148000,0.0324,0.013523,0.002678,0.000431,0.003643
12149000,0.0324,0.013523,0.002678,0.000431,0.003408
12150000,0.0324,0.013523,0.002678,0.000431,0.003408
12151000,0.0324,0.013523,0.002678,0.000431,0.003643
12152000,0.0324,0.013523,0.002678,0.000431,0.003056
12153000,0.0324,0.013523,0.002678,0.000431,0.004113
12154000,0.0324,0.013523,0.002678,0.000431,0.003056
12155000,0.0324,0.013523,0.002678,0.000431,0.002938
12156000,0.0324,0.013523,0.002678,0.000431,0.003643
12157000,0.0324,0.013523,0.002678,0.000431,0.003643
12158000,0.0324,0.013523,0.002678,0.000431,0.003408
12159000,0.0324,0.013523,0.002678,0.000431,0.003761
12160000,0.0324,0.013523,0.002678,0.000431,0.003526
12161000,0.0324,0.013523,0.002678,0.000431,0.003526
12162000,0.0324,0.013523,0.002678,0.000431,0.003408
12163000,0.0324,0.013523,0.002678,0.000431,0.003878
12164000,0.0324,0.013523,0.002678,0.000431,0.003056
12165000,0.0324,0.013523,0.002678,0.000431,0.003526
12166000,0.0324,0.013523,0.002678,0.000431,0.003173
12167000,0.0324,0.013523,0.002678,0.000431,0.003878
12168000,0.0324,0.013523,0.002678,0.000431,0.003056
12169000,0.0324,0.013523,0.002678,0.000431,0.003291
12170000,0.0324,0.013523,0.002678,0.000431,0.003996
12171000,0.0324,0.013523,0.002678,0.000431,0.003291
12172000,0.0324,0.013523,0.002678,0.000431,0.003291
12173000,0.0324,0.013523,0.002678,0.000431,0.003526
12174000,0.0324,0.013523,0.002678,0.000431,0.003526
12175000,0.0324,0.013523,0.002678,0.000431,0.003408
12176000,0.0324,0.013523,0.002678,0.000431,0.003408
12177000,0.0324,0.013523,0.002678,0.000431,0.003643
12178000,0.0324,0.013523,0.002678,0.000431,0.003408
12179000,0.0324,0.013523,0.002678,0.000431,0.003173
12180000,0.0324,0.013523,0.002678,0.000431,0.003878
12181000,0.0324,0.013523,0.002678,0.000431,0.003291
12182000,0.0324,0.013523,0.002678,0.000431,0.003408
12183000,0.0324,0.013523,0.002678,0.000431,0.003526
12184000,0.0324,0.013523,0.002678,0.000431,0.004113
12185000,0.0324,0.013523,0.002678,0.000431,0.003643
12186000,0.0324,0.013523,0.002678,0.000431,0.003173
12187000,0.0324,0.013523,0.002678,0.000431,0.003996
12188000,0.0324,0.013523,0.002678,0.000431,0.003761
12189000,0.0324,0.013523,0.002678,0.000431,0.003056
12190000,0.0324,0.013523,0.002678,0.000431,0.003526
12191000,0.0324,0.013523,0.002678,0.000431,0.003761
12192000,0.0324,0.013523,0.002678,0.000431,0.003173
12193000,0.0324,0.013523,0.002678,0.000431,0.003291
12194000,0.0324,0.013523,0.002678,0.000431,0.003996
12195000,0.0324,0.013523,0.002678,0.000431,0.003643
12196000,0.0324,0.013523,0.002678,0.000431,0.003291
12197000,0.0324,0.013523,0.002678,0.000431,0.003526
12198000,0.0324,0.013523,0.002678,0.000431,0.003878
12199000,0.0324,0.013523,0.002678,0.000431,0.003173
12200000,0.0324,0.013523,0.002678,0.000431,0.003643
12201000,0.0324,0.013523,0.002678,0.000431,0.003996
12202000,0.0324,0.013523,0.002678,0.000431,0.003173
12203000,0.0324,0.013523,0.002678,0.000431,0.003056
12204000,0.0324,0.013523,0.002678,0.000431,0.003408
12205000,0.0324,0.013523,0.002678,0.000431,0.003643
12206000,0.0324,0.013523,0.002678,0.000431,0.003408
12207000,0.0324,0.013523,0.002678,0.000431,0.003643
12208000,0.0324,0.013523,0.002678,0.000431,0.003761
12209000,0.0324,0.013523,0.002678,0.000431,0.002938
12210000,0.0324,0.013523,0.002678,0.000431,0.003643
12211000,0.0324,0.013523,0.002678,0.000431,0.003761
12212000,0.0324,0.013523,0.002678,0.000431,0.003408
12213000,0.0324,0.013523,0.002678,0.000431,0.003408
12214000,0.0324,0.013523,0.002678,0.000431,0.003526
12215000,0.0324,0.013523,0.002678,0.000431,0.003643
12216000,0.0324,0.013523,0.002678,0.000431,0.003643
12217000,0.0324,0.013523,0.002678,0.000431,0.003291
12218000,0.0324,0.013523,0.002678,0.000431,0.003878
12219000,0.0324,0.013523,0.002678,0.000431,0.003643
12220000,0.0324,0.013523,0.002678,0.000431,0.003291
12221000,0.0324,0.013523,0.002678,0.000431,0.003408
12222000,0.0324,0.013523,0.002678,0.000431,0.003643
12223000,0.0324,0.013523,0.002678,0.000431,0.003291
12224000,0.0324,0.013523,0.002678,0.000431,0.003643
12225000,0.0324,0.013523,0.002678,0.000431,0.003643
12226000,0.0324,0.013523,0.002678,0.000431,0.003408
12227000,0.0324,0.013523,0.002678,0.000431,0.003408
12228000,0.0324,0.013523,0.002678,0.000431,0.003408
12229000,0.0324,0.013523,0.002678,0.000431,0.003643
12230000,0.0324,0.013523,0.002678,0.000431,0.003526
12231000,0.0324,0.013523,0.002678,0.000431,0.003408
12232000,0.0324,0.013523,0.002678,0.000431,0.003996
12233000,0.0324,0.013523,0.002678,0.000431,0.003291
12234000,0.0324,0.013523,0.002678,0.000431,0.003291
12235000,0.0324,0.013523,0.002678,0.000431,0.003996
12236000,0.0324,0.013523,0.002678,0.000431,0.003173
12237000,0.0324,0.013523,0.002678,0.000431,0.003526
12238000,0.0324,0.013523,0.002678,0.000431,0.003291
12239000,0.0324,0.013523,0.002678,0.000431,0.003878
12240000,0.0324,0.013523,0.002678,0.000431,0.003173
12241000,0.0324,0.013523,0.002678,0.000431,0.003526
12242000,0.0324,0.013523,0.002678,0.000431,0.003761
12243000,0.0324,0.013523,0.002678,0.000431,0.003526
12244000,0.0324,0.013523,0.002678,0.000431,0.002938
12245000,0.0324,0.013523,0.002678,0.000431,0.003996
12246000,0.0324,0.013523,0.002678,0.000431,0.003408
12247000,0.0324,0.013523,0.002678,0.000431,0.003643
12248000,0.0324,0.013523,0.002678,0.000431,0.003173
12249000,0.0324,0.013523,0.002678,0.000431,0.003761
12250000,0.0324,0.013523,0.002678,0.000431,0.003526
12251000,0.0324,0.013523,0.002678,0.000431,0.003291
12252000,0.0324,0.013523,0.002678,0.000431,0.003526
12253000,0.0324,0.013523,0.002678,0.000431,0.003878
12254000,0.0324,0.013523,0.002678,0.000431,0.003291
12255000,0.0324,0.013523,0.002678,0.000431,0.003761
12256000,0.0324,0.013523,0.002678,0.000431,0.004113
12257000,0.0324,0.013523,0.002678,0.000431,0.002938
12258000,0.0324,0.013523,0.002678,0.000431,0.003996
12259000,0.0324,0.013523,0.002678,0.000431,0.003761
12260000,0.0324,0.013523,0.002678,0.000431,0.003408
12261000,0.0324,0.013523,0.002678,0.000431,0.003173
12262000,0.0324,0.013523,0.002678,0.000431,0.003878
12263000,0.0324,0.013523,0.002678,0.000431,0.003643
12264000,0.0324,0.013523,0.002678,0.000431,0.003761
12265000,0.0324,0.013523,0.002678,0.000431,0.002938
12266000,0.0324,0.013523,0.002678,0.000431,0.003996
12267000,0.0324,0.013523,0.002678,0.000431,0.003643
12268000,0.0324,0.013523,0.002678,0.000431,0.003408
12269000,0.0324,0.013523,0.002678,0.000431,0.003408
12270000,0.0324,0.013523,0.002678,0.000431,0.003996
12271000,0.0324,0.013523,0.002678,0.000431,0.003056
12272000,0.0324,0.013523,0.002678,0.000431,0.003526
12273000,0.0324,0.013523,0.002678,0.000431,0.003643
12274000,0.0324,0.013523,0.002678,0.000431,0.003408
12275000,0.0324,0.013523,0.002678,0.000431,0.003526
12276000,0.0324,0.013523,0.002678,0.000431,0.003643
12277000,0.0324,0.013523,0.002678,0.000431,0.003761
12278000,0.0324,0.013523,0.002678,0.000431,0.003291
12279000,0.0324,0.013523,0.002678,0.000431,0.003173
12280000,0.0324,0.013523,0.002678,0.000431,0.003761
12281000,0.0324,0.013523,0.002678,0.000431,0.003291
12282000,0.0324,0.013523,0.002678,0.000431,0.003173
12283000,0.0324,0.013523,0.002678,0.000431,0.003761
12284000,0.0324,0.013523,0.002678,0.000431,0.003056
12285000,0.0324,0.013523,0.002678,0.000431,0.003526
12286000,0.0324,0.013523,0.002678,0.000431,0.003408
12287000,0.0324,0.013523,0.002678,0.000431,0.003996
12288000,0.0324,0.013523,0.002678,0.000431,0.003526
12289000,0.0324,0.013523,0.002678,0.000431,0.003291
12290000,0.0324,0.013523,0.002678,0.000431,0.003761
12291000,0.0324,0.013523,0.002678,0.000431,0.003761
12292000,0.0324,0.013523,0.002678,0.000431,0.002586
12293000,0.0324,0.013523,0.002678,0.000431,0.004231
12294000,0.0324,0.013523,0.002678,0.000431,0.003291
12295000,0.0324,0.013523,0.002678,0.000431,0.003408
12296000,0.0324,0.013523,0.002678,0.000431,0.003643
12297000,0.0324,0.013523,0.002678,0.000431,0.003643
12298000,0.0324,0.013523,0.002678,0.000431,0.003643
12299000,0.0324,0.013523,0.002678,0.000431,0.003408
12300000,0.0324,0.013523,0.002678,0.000431,0.003643
12301000,0.0324,0.013523,0.002678,0.000431,0.003996
12302000,0.0324,0.013523,0.002678,0.000431,0.003291
12303000,0.0324,0.013523,0.002678,0.000431,0.003291
12304000,0.0324,0.013523,0.002678,0.000431,0.003761
12305000,0.0324,0.013523,0.002678,0.000431,0.003408
12306000,0.0324,0.013523,0.002678,0.000431,0.003291
12307000,0.0324,0.013523,0.002678,0.000431,0.003878
12308000,0.0324,0.013523,0.002678,0.000431,0.003996
12309000,0.0324,0.013523,0.002678,0.000431,0.003291
12310000,0.0324,0.013523,0.002678,0.000431,0.003761
12311000,0.0324,0.013523,0.002678,0.000431,0.003526
12312000,0.0324,0.013523,0.002678,0.000431,0.003761
12313000,0.0324,0.013523,0.002678,0.000431,0.003291
12314000,0.0324,0.013523,0.002678,0.000431,0.003761
12315000,0.0324,0.013523,0.002678,0.000431,0.002938
12316000,0.0324,0.013523,0.002678,0.000431,0.003643
12317000,0.0324,0.013523,0.002678,0.000431,0.003408
12318000,0.0324,0.013523,0.002678,0.000431,0.003643
12319000,0.0324,0.013523,0.002678,0.000431,0.003291
12320000,0.0324,0.013523,0.002678,0.000431,0.003408
12321000,0.0324,0.013523,0.002678,0.000431,0.003408
12322000,0.0324,0.013523,0.002678,0.000431,0.003526
12323000,0.0324,0.013523,0.002678,0.000431,0.002821
12324000,0.0324,0.013523,0.002678,0.000431,0.003408
12325000,0.0324,0.013523,0.002678,0.000431,0.003408
12326000,0.0324,0.013523,0.002678,0.000431,0.003408
12327000,0.0324,0.013523,0.002678,0.000431,0.003291
12328000,0.0324,0.013523,0.002678,0.000431,0.003056
12329000,0.0324,0.013523,0.002678,0.000431,0.003643
12330000,0.0324,0.013523,0.002678,0.000431,0.002821
12331000,0.0324,0.013523,0.002678,0.000431,0.003761
12332000,0.0324,0.013523,0.002678,0.000431,0.003526
12333000,0.0324,0.013523,0.002678,0.000431,0.003526
12334000,0.0324,0.013523,0.002678,0.000431,0.003173
12335000,0.0324,0.013523,0.002678,0.000431,0.003761
12336000,0.0324,0.013523,0.002678,0.000431,0.003173
12337000,0.0324,0.013523,0.002678,0.000431,0.003878
12338000,0.0324,0.013523,0.002678,0.000431,0.003173
12339000,0.0324,0.013523,0.002678,0.000431,0.003878
12340000,0.0324,0.013523,0.002678,0.000431,0.003643
12341000,0.0324,0.013523,0.002678,0.000431,0.003291
12342000,0.0324,0.013523,0.002678,0.000431,0.002938
12343000,0.0324,0.013523,0.002678,0.000431,0.003643
12344000,0.0324,0.013523,0.002678,0.000431,0.002821
12345000,0.0324,0.013523,0.002678,0.000431,0.004113
12346000,0.0324,0.013523,0.002678,0.000431,0.002821
12347000,0.0324,0.013523,0.002678,0.000431,0.003761
12348000,0.0324,0.013523,0.002678,0.000431,0.003408
12349000,0.0324,0.013523,0.002678,0.000431,0.003761
12350000,0.0324,0.013523,0.002678,0.000431,0.003291
12351000,0.0324,0.013523,0.002678,0.000431,0.003643
12352000,0.0324,0.013523,0.002678,0.000431,0.003408
12353000,0.0324,0.013523,0.002678,0.000431,0.003291
12354000,0.0324,0.013523,0.002678,0.000431,0.003643
12355000,0.0324,0.013523,0.002678,0.000431,0.003526
12356000,0.0324,0.013523,0.002678,0.000431,0.003526
12357000,0.0324,0.013523,0.002678,0.000431,0.003408
12358000,0.0324,0.013523,0.002678,0.000431,0.003408
12359000,0.0324,0.013523,0.002678,0.000431,0.003408
12360000,0.0324,0.013523,0.002678,0.000431,0.003408
12361000,0.0324,0.013523,0.002678,0.000431,0.003173
12362000,0.0324,0.013523,0.002678,0.000431,0.003761
12363000,0.0324,0.013523,0.002678,0.000431,0.003173
12364000,0.0324,0.013523,0.002678,0.000431,0.003173
12365000,0.0324,0.013523,0.002678,0.000431,0.003526
12366000,0.0324,0.013523,0.002678,0.000431,0.003878
12367000,0.0324,0.013523,0.002678,0.000431,0.003173
12368000,0.0324,0.013523,0.002678,0.000431,0.003878
12369000,0.0324,0.013523,0.002678,0.000431,0.003291
12370000,0.0324,0.013523,0.002678,0.000431,0.003878
12371000,0.0324,0.013523,0.002678,0.000431,0.003173
12372000,0.0324,0.013523,0.002678,0.000431,0.003643
12373000,0.0324,0.013523,0.002678,0.000431,0.003291
12374000,0.0324,0.013523,0.002678,0.000431,0.003526
12375000,0.0324,0.013523,0.002678,0.000431,0.003878
12376000,0.0324,0.013523,0.002678,0.000431,0.003761
12377000,0.0324,0.013523,0.002678,0.000431,0.003526
12378000,0.0324,0.013523,0.002678,0.000431,0.003056
12379000,0.0324,0.013523,0.002678,0.000431,0.003761
12380000,0.0324,0.013523,0.002678,0.000431,0.003526
12381000,0.0324,0.013523,0.002678,0.000431,0.003526
12382000,0.0324,0.013523,0.002678,0.000431,0.003526
12383000,0.0324,0.013523,0.002678,0.000431,0.003643
12384000,0.0324,0.013523,0.002678,0.000431,0.003173
12385000,0.0324,0.013523,0.002678,0.000431,0.003878
12386000,0.0324,0.013523,0.002678,0.000431,0.003291
12387000,0.0324,0.013523,0.002678,0.000431,0.003878
12388000,0.0324,0.013523,0.002678,0.000431,0.003408
12389000,0.0324,0.013523,0.002678,0.000431,0.003291
12390000,0.0324,0.013523,0.002678,0.000431,0.003643
12391000,0.0324,0.013523,0.002678,0.000431,0.003526
12392000,0.0324,0.013523,0.002678,0.000431,0.003408
12393000,0.0324,0.013523,0.002678,0.000431,0.003526
12394000,0.0324,0.013523,0.002678,0.000431,0.003408
12395000,0.0324,0.013523,0.002678,0.000431,0.003408
12396000,0.0324,0.013523,0.002678,0.000431,0.003643
12397000,0.0324,0.013523,0.002678,0.000431,0.003408
12398000,0.0324,0.013523,0.002678,0.000431,0.003996
12399000,0.0324,0.013523,0.002678,0.000431,0.003526
12400000,0.0324,0.013523,0.002678,0.000431,0.003643
12401000,0.0324,0.013523,0.002678,0.000431,0.003408
12402000,0.0324,0.013523,0.002678,0.000431,0.003291
12403000,0.0324,0.013523,0.002678,0.000431,0.003643
12404000,0.0324,0.013523,0.002678,0.000431,0.003761
12405000,0.0324,0.013523,0.002678,0.000431,0.003526
12406000,0.0324,0.013523,0.002678,0.000431,0.003643
12407000,0.0324,0.013523,0.002678,0.000431,0.003761
12408000,0.0324,0.013523,0.002678,0.000431,0.003526
12409000,0.0324,0.013523,0.002678,0.000431,0.003408
12410000,0.0324,0.013523,0.002678,0.000431,0.003526
12411000,0.0324,0.013523,0.002678,0.000431,0.003173
12412000,0.0324,0.013523,0.002678,0.000431,0.003643
12413000,0.0324,0.013523,0.002678,0.000431,0.003291
12414000,0.0324,0.013523,0.002678,0.000431,0.003408
12415000,0.0324,0.013523,0.002678,0.000431,0.003643
12416000,0.0324,0.013523,0.002678,0.000431,0.003408
12417000,0.0324,0.013523,0.002678,0.000431,0.003408
12418000,0.0324,0.013523,0.002678,0.000431,0.003408
12419000,0.0324,0.013523,0.002678,0.000431,0.003173
12420000,0.0324,0.013523,0.002678,0.000431,0.003643
12421000,0.0324,0.013523,0.002678,0.000431,0.003643
12422000,0.0324,0.013523,0.002678,0.000431,0.003408
12423000,0.0324,0.013523,0.002678,0.000431,0.003996
12424000,0.0324,0.013523,0.002678,0.000431,0.003526
12425000,0.0324,0.013523,0.002678,0.000431,0.003643
12426000,0.0324,0.013523,0.002678,0.000431,0.003643
12427000,0.0324,0.013523,0.002678,0.000431,0.003173
12428000,0.0324,0.013523,0.002678,0.000431,0.003761
12429000,0.0324,0.013523,0.002678,0.000431,0.003173
12430000,0.0324,0.013523,0.002678,0.000431,0.003878
12431000,0.0324,0.013523,0.002678,0.000431,0.003643
12432000,0.0324,0.013523,0.002678,0.000431,0.003526
12433000,0.0324,0.013523,0.002678,0.000431,0.003408
12434000,0.0324,0.013523,0.002678,0.000431,0.003526
12435000,0.0324,0.013523,0.002678,0.000431,0.003761
12436000,0.0324,0.013523,0.002678,0.000431,0.003408
12437000,0.0324,0.013523,0.002678,0.000431,0.003878
12438000,0.0324,0.013523,0.002678,0.000431,0.003408
12439000,0.0324,0.013523,0.002678,0.000431,0.003643
12440000,0.0324,0.013523,0.002678,0.000431,0.003526
12441000,0.0324,0.013523,0.002678,0.000431,0.003526
12442000,0.0324,0.013523,0.002678,0.000431,0.003878
12443000,0.0324,0.013523,0.002678,0.000431,0.003526
12444000,0.0324,0.013523,0.002678,0.000431,0.003173
12445000,0.0324,0.013523,0.002678,0.000431,0.003056
12446000,0.0324,0.013523,0.002678,0.000431,0.003526
12447000,0.0324,0.013523,0.002678,0.000431,0.003291
12448000,0.0324,0.013523,0.002678,0.000431,0.003056
12449000,0.0324,0.013523,0.002678,0.000431,0.003526
12450000,0.0324,0.013523,0.002678,0.000431,0.003878
12451000,0.0324,0.013523,0.002678,0.000431,0.002821
12452000,0.0324,0.013523,0.002678,0.000431,0.003643
12453000,0.0324,0.013523,0.002678,0.000431,0.003173
12454000,0.0324,0.013523,0.002678,0.000431,0.003173
12455000,0.0324,0.013523,0.002678,0.000431,0.003056
12456000,0.0324,0.013523,0.002678,0.000431,0.003291
12457000,0.0324,0.013523,0.002678,0.000431,0.003526
12458000,0.0324,0.013523,0.002678,0.000431,0.003173
12459000,0.0324,0.013523,0.002678,0.000431,0.003173
12460000,0.0324,0.013523,0.002678,0.000431,0.003526
12461000,0.0324,0.013523,0.002678,0.000431,0.003408
12462000,0.0324,0.013523,0.002678,0.000431,0.003761
12463000,0.0324,0.013523,0.002678,0.000431,0.003526
12464000,0.0324,0.013523,0.002678,0.000431,0.003526
12465000,0.0324,0.013523,0.002678,0.000431,0.003173
12466000,0.0324,0.013523,0.002678,0.000431,0.003291
12467000,0.0324,0.013523,0.002678,0.000431,0.003526
12468000,0.0324,0.013523,0.002678,0.000431,0.002938
12469000,0.0324,0.013523,0.002678,0.000431,0.003408
12470000,0.0324,0.013523,0.002678,0.000431,0.003643
12471000,0.0324,0.013523,0.002678,0.000431,0.003408
12472000,0.0324,0.013523,0.002678,0.000431,0.003173
12473000,0.0324,0.013523,0.002678,0.000431,0.003291
12474000,0.0324,0.013523,0.002678,0.000431,0.003643
12475000,0.0324,0.013523,0.002678,0.000431,0.003291
12476000,0.0324,0.013523,0.002678,0.000431,0.003291
12477000,0.0324,0.013523,0.002678,0.000431,0.003761
12478000,0.0324,0.013523,0.002678,0.000431,0.003173
12479000,0.0324,0.013523,0.002678,0.000431,0.003056
12480000,0.0324,0.013523,0.002678,0.000431,0.003291
12481000,0.0324,0.013523,0.002678,0.000431,0.003526
12482000,0.0324,0.013523,0.002678,0.000431,0.003173
12483000,0.0324,0.013523,0.002678,0.000431,0.003643
12484000,0.0324,0.013523,0.002678,0.000431,0.003526
12485000,0.0324,0.013523,0.002678,0.000431,0.003526
12486000,0.0324,0.013523,0.002678,0.000431,0.002938
12487000,0.0324,0.013523,0.002678,0.000431,0.003408
12488000,0.0324,0.013523,0.002678,0.000431,0.003878
12489000,0.0324,0.013523,0.002678,0.000431,0.002938
12490000,0.0324,0.013523,0.002678,0.000431,0.003408
12491000,0.0324,0.013523,0.002678,0.000431,0.003291
12492000,0.0324,0.013523,0.002678,0.000431,0.003643
12493000,0.0324,0.013523,0.002678,0.000431,0.003173
12494000,0.0324,0.013523,0.002678,0.000431,0.003996
12495000,0.0324,0.013523,0.002678,0.000431,0.003291
12496000,0.0324,0.013523,0.002678,0.000431,0.003173
12497000,0.0324,0.013523,0.002678,0.000431,0.003643
12498000,0.0324,0.013523,0.002678,0.000431,0.003408
12499000,0.0324,0.013523,0.002678,0.000431,0.003408
12500000,0.0324,0.013523,0.002678,0.000431,0.003408
12501000,0.0324,0.013523,0.002678,0.000431,0.003643
12502000,0.0324,0.013523,0.002678,0.000431,0.003761
12503000,0.0324,0.013523,0.002678,0.000431,0.002938
12504000,0.0324,0.013523,0.002678,0.000431,0.003526
12505000,0.0324,0.013523,0.002678,0.000431,0.003761
12506000,0.0324,0.013523,0.002678,0.000431,0.003291
12507000,0.0324,0.013523,0.002678,0.000431,0.003408
12508000,0.0324,0.013523,0.002678,0.000431,0.003878
12509000,0.0324,0.013523,0.002678,0.000431,0.003056
12510000,0.0324,0.013523,0.002678,0.000431,0.003643
12511000,0.0324,0.013523,0.002678,0.000431,0.003526
12512000,0.0324,0.013523,0.002678,0.000431,0.003526
12513000,0.0324,0.013523,0.002678,0.000431,0.003526
12514000,0.0324,0.013523,0.002678,0.000431,0.003408
12515000,0.0324,0.013523,0.002678,0.000431,0.003643
12516000,0.0324,0.013523,0.002678,0.000431,0.003173
12517000,0.0324,0.013523,0.002678,0.000431,0.003526
12518000,0.0324,0.013523,0.002678,0.000431,0.003408
12519000,0.0324,0.013523,0.002678,0.000431,0.003408
12520000,0.0324,0.013523,0.002678,0.000431,0.003056
12521000,0.0324,0.013523,0.002678,0.000431,0.003173
12522000,0.0324,0.013523,0.002678,0.000431,0.003761
12523000,0.0324,0.013523,0.002678,0.000431,0.002938
12524000,0.0324,0.013523,0.002678,0.000431,0.003291
12525000,0.0324,0.013523,0.002678,0.000431,0.003878
12526000,0.0324,0.013523,0.002678,0.000431,0.003173
12527000,0.0324,0.013523,0.002678,0.000431,0.003291
12528000,0.0324,0.013523,0.002678,0.000431,0.003643
12529000,0.0324,0.013523,0.002678,0.000431,0.003526
12530000,0.0324,0.013523,0.002678,0.000431,0.002938
12531000,0.0324,0.013523,0.002678,0.000431,0.003291
12532000,0.0324,0.013523,0.002678,0.000431,0.003526
12533000,0.0324,0.013523,0.002678,0.000431,0.003056
12534000,0.0324,0.013523,0.002678,0.000431,0.003526
12535000,0.0324,0.013523,0.002678,0.000431,0.003643
12536000,0.0324,0.013523,0.002678,0.000431,0.003173
12537000,0.0324,0.013523,0.002678,0.000431,0.003761
12538000,0.0324,0.013523,0.002678,0.000431,0.003291
12539000,0.0324,0.013523,0.002678,0.000431,0.003408
12540000,0.0324,0.013523,0.002678,0.000431,0.003408
12541000,0.0324,0.013523,0.002678,0.000431,0.003173
12542000,0.0324,0.013523,0.002678,0.000431,0.003526
12543000,0.0324,0.013523,0.002678,0.000431,0.003526
12544000,0.0324,0.013523,0.002678,0.000431,0.003291
12545000,0.0324,0.013523,0.002678,0.000431,0.003291
12546000,0.0324,0.013523,0.002678,0.000431,0.003878
12547000,0.0324,0.013523,0.002678,0.000431,0.002938
12548000,0.0324,0.013523,0.002678,0.000431,0.003173
12549000,0.0324,0.013523,0.002678,0.000431,0.003878
12550000,0.0324,0.013523,0.002678,0.000431,0.003056
12551000,0.0324,0.013523,0.002678,0.000431,0.003643
12552000,0.0324,0.013523,0.002678,0.000431,0.003526
12553000,0.0324,0.013523,0.002678,0.000431,0.003408
12554000,0.0324,0.013523,0.002678,0.000431,0.003291
12555000,0.0324,0.013523,0.002678,0.000431,0.003291
12556000,0.0324,0.013523,0.002678,0.000431,0.003173
12557000,0.0324,0.013523,0.002678,0.000431,0.003643
12558000,0.0324,0.013523,0.002678,0.000431,0.003643
12559000,0.0324,0.013523,0.002678,0.000431,0.003291
12560000,0.0324,0.013523,0.002678,0.000431,0.003878
12561000,0.0324,0.013523,0.002678,0.000431,0.002938
12562000,0.0324,0.013523,0.002678,0.000431,0.003408
12563000,0.0324,0.013523,0.002678,0.000431,0.003408
12564000,0.0324,0.013523,0.002678,0.000431,0.003173
12565000,0.0324,0.013523,0.002678,0.000431,0.003526
12566000,0.0324,0.013523,0.002678,0.000431,0.003408
12567000,0.0324,0.013523,0.002678,0.000431,0.003996
12568000,0.0324,0.013523,0.002678,0.000431,0.003291
12569000,0.0324,0.013523,0.002678,0.000431,0.003526
12570000,0.0324,0.013523,0.002678,0.000431,0.003761
12571000,0.0324,0.013523,0.002678,0.000431,0.002938
12572000,0.0324,0.013523,0.002678,0.000431,0.003526
12573000,0.0324,0.013523,0.002678,0.000431,0.003761
12574000,0.0324,0.013523,0.002678,0.000431,0.003526
12575000,0.0324,0.013523,0.002678,0.000431,0.003526
12576000,0.0324,0.013523,0.002678,0.000431,0.003526
12577000,0.0324,0.013523,0.002678,0.000431,0.003761
12578000,0.0324,0.013523,0.002678,0.000431,0.003173
12579000,0.0324,0.013523,0.002678,0.000431,0.003526
12580000,0.0324,0.013523,0.002678,0.000431,0.003878
12581000,0.0324,0.013523,0.002678,0.000431,0.003173
12582000,0.0324,0.013523,0.002678,0.000431,0.003408
12583000,0.0324,0.013523,0.002678,0.000431,0.003408
12584000,0.0324,0.013523,0.002678,0.000431,0.003643
12585000,0.0324,0.013523,0.002678,0.000431,0.003408
12586000,0.0324,0.013523,0.002678,0.000431,0.003408
12587000,0.0324,0.013523,0.002678,0.000431,0.003878
12588000,0.0324,0.013523,0.002678,0.000431,0.003291
12589000,0.0324,0.013523,0.002678,0.000431,0.003056
12590000,0.0324,0.013523,0.002678,0.000431,0.003761
12591000,0.0324,0.013523,0.002678,0.000431,0.003173
12592000,0.0324,0.013523,0.002678,0.000431,0.003408
12593000,0.0324,0.013523,0.002678,0.000431,0.003291
12594000,0.0324,0.013523,0.002678,0.000431,0.003878
12595000,0.0324,0.013523,0.002678,0.000431,0.002938
12596000,0.0324,0.013523,0.002678,0.000431,0.003056
12597000,0.0324,0.013523,0.002678,0.000431,0.003878
12598000,0.0324,0.013523,0.002678,0.000431,0.003408
12599000,0.0324,0.013523,0.002678,0.000431,0.003291
12600000,0.0324,0.013523,0.002678,0.000431,0.003173
12601000,0.0324,0.013523,0.002678,0.000431,0.003526
12602000,0.0324,0.013523,0.002678,0.000431,0.003408
12603000,0.0324,0.013523,0.002678,0.000431,0.003291
12604000,0.0324,0.013523,0.002678,0.000431,0.003526
12605000,0.0324,0.013523,0.002678,0.000431,0.003643
12606000,0.0324,0.013523,0.002678,0.000431,0.003056
12607000,0.0324,0.013523,0.002678,0.000431,0.003643
12608000,0.0324,0.013523,0.002678,0.000431,0.003291
12609000,0.0324,0.013523,0.002678,0.000431,0.002938
12610000,0.0324,0.013523,0.002678,0.000431,0.003996
12611000,0.0324,0.013523,0.002678,0.000431,0.003408
12612000,0.0324,0.013523,0.002678,0.000431,0.003408
12613000,0.0324,0.013523,0.002678,0.000431,0.003291
12614000,0.0324,0.013523,0.002678,0.000431,0.003408
12615000,0.0324,0.013523,0.002678,0.000431,0.003761
12616000,0.0324,0.013523,0.002678,0.000431,0.003056
12617000,0.0324,0.013523,0.002678,0.000431,0.003291
12618000,0.0324,0.013523,0.002678,0.000431,0.003643
12619000,0.0324,0.013523,0.002678,0.000431,0.003408
12620000,0.0324,0.013523,0.002678,0.000431,0.003173
12621000,0.0324,0.013523,0.002678,0.000431,0.003291
12622000,0.0324,0.013523,0.002678,0.000431,0.003291
12623000,0.0324,0.013523,0.002678,0.000431,0.003408
12624000,0.0324,0.013523,0.002678,0.000431,0.003408
12625000,0.0324,0.013523,0.002678,0.000431,0.003408
12626000,0.0324,0.013523,0.002678,0.000431,0.003056
12627000,0.0324,0.013523,0.002678,0.000431,0.003761
12628000,0.0324,0.013523,0.002678,0.000431,0.003526
12629000,0.0324,0.013523,0.002678,0.000431,0.003643
12630000,0.0324,0.013523,0.002678,0.000431,0.003173
12631000,0.0324,0.013523,0.002678,0.000431,0.003173
12632000,0.0324,0.013523,0.002678,0.000431,0.003291
12633000,0.0324,0.013523,0.002678,0.000431,0.003526
12634000,0.0324,0.013523,0.002678,0.000431,0.003291
12635000,0.0324,0.013523,0.002678,0.000431,0.003643
12636000,0.0324,0.013523,0.002678,0.000431,0.003291
12637000,0.0324,0.013523,0.002678,0.000431,0.003173
12638000,0.0324,0.013523,0.002678,0.000431,0.003643
12639000,0.0324,0.013523,0.002678,0.000431,0.003408
12640000,0.0324,0.013523,0.002678,0.000431,0.003408
12641000,0.0324,0.013523,0.002678,0.000431,0.003643
12642000,0.0324,0.013523,0.002678,0.000431,0.003408
12643000,0.0324,0.013523,0.002678,0.000431,0.003408
12644000,0.0324,0.013523,0.002678,0.000431,0.003291
12645000,0.0324,0.013523,0.002678,0.000431,0.003526
12646000,0.0324,0.013523,0.002678,0.000431,0.003643
12647000,0.0324,0.013523,0.002678,0.000431,0.003056
12648000,0.0324,0.013523,0.002678,0.000431,0.003643
12649000,0.0324,0.013523,0.002678,0.000431,0.003408
12650000,0.0324,0.013523,0.002678,0.000431,0.003173
12651000,0.0324,0.013523,0.002678,0.000431,0.003173
12652000,0.0324,0.013523,0.002678,0.000431,0.003643
12653000,0.0324,0.013523,0.002678,0.000431,0.003643
12654000,0.0324,0.013523,0.002678,0.000431,0.002703
12655000,0.0324,0.013523,0.002678,0.000431,0.004113
12656000,0.0324,0.013523,0.002678,0.000431,0.003408
12657000,0.0324,0.013523,0.002678,0.000431,0.003408
12658000,0.0324,0.013523,0.002678,0.000431,0.003173
12659000,0.0324,0.013523,0.002678,0.000431,0.003408
12660000,0.0324,0.013523,0.002678,0.000431,0.003408
12661000,0.0324,0.013523,0.002678,0.000431,0.003056
12662000,0.0324,0.013523,0.002678,0.000431,0.003408
12663000,0.0324,0.013523,0.002678,0.000431,0.003526
12664000,0.0324,0.013523,0.002678,0.000431,0.003408
12665000,0.0324,0.013523,0.002678,0.000431,0.003173
12666000,0.0324,0.013523,0.002678,0.000431,0.003878
12667000,0.0324,0.013523,0.002678,0.000431,0.002938
12668000,0.0324,0.013523,0.002678,0.000431,0.003408
12669000,0.0324,0.013523,0.002678,0.000431,0.003173
12670000,0.0324,0.013523,0.002678,0.000431,0.003526
12671000,0.0324,0.013523,0.002678,0.000431,0.003056
12672000,0.0324,0.013523,0.002678,0.000431,0.003526
12673000,0.0324,0.013523,0.002678,0.000431,0.003761
12674000,0.0324,0.013523,0.002678,0.000431,0.003173
12675000,0.0324,0.013523,0.002678,0.000431,0.003291
12676000,0.0324,0.013523,0.002678,0.000431,0.003643
12677000,0.0324,0.013523,0.002678,0.000431,0.003291
12678000,0.0324,0.013523,0.002678,0.000431,0.003291
12679000,0.0324,0.013523,0.002678,0.000431,0.003526
12680000,0.0324,0.013523,0.002678,0.000431,0.003526
12681000,0.0324,0.013523,0.002678,0.000431,0.003056
12682000,0.0324,0.013523,0.002678,0.000431,0.003291
12683000,0.0324,0.013523,0.002678,0.000431,0.003526
12684000,0.0324,0.013523,0.002678,0.000431,0.003173
12685000,0.0324,0.013523,0.002678,0.000431,0.003526
12686000,0.0324,0.013523,0.002678,0.000431,0.003408
12687000,0.0324,0.013523,0.002678,0.000431,0.003643
12688000,0.0324,0.013523,0.002678,0.000431,0.003526
12689000,0.0324,0.013523,0.002678,0.000431,0.003173
12690000,0.0324,0.013523,0.002678,0.000431,0.003526
12691000,0.0324,0.013523,0.002678,0.000431,0.003408
12692000,0.0324,0.013523,0.002678,0.000431,0.003643
12693000,0.0324,0.013523,0.002678,0.000431,0.003408
12694000,0.0324,0.013523,0.002678,0.000431,0.003643
12695000,0.0324,0.013523,0.002678,0.000431,0.003173
12696000,0.0324,0.013523,0.002678,0.000431,0.003643
12697000,0.0324,0.013523,0.002678,0.000431,0.003643
12698000,0.0324,0.013523,0.002678,0.000431,0.003408
12699000,0.0324,0.013523,0.002678,0.000431,0.003526
12700000,0.0324,0.013523,0.002678,0.000431,0.003291
12701000,0.0324,0.013523,0.002678,0.000431,0.003526
12702000,0.0324,0.013523,0.002678,0.000431,0.003173
12703000,0.0324,0.013523,0.002678,0.000431,0.003056
12704000,0.0324,0.013523,0.002678,0.000431,0.003878
12705000,0.0324,0.013523,0.002678,0.000431,0.003291
12706000,0.0324,0.013523,0.002678,0.000431,0.003526
12707000,0.0324,0.013523,0.002678,0.000431,0.003291
12708000,0.0324,0.013523,0.002678,0.000431,0.003761
12709000,0.0324,0.013523,0.002678,0.000431,0.003408
12710000,0.0324,0.013523,0.002678,0.000431,0.003056
12711000,0.0324,0.013523,0.002678,0.000431,0.003643
12712000,0.0324,0.013523,0.002678,0.000431,0.003408
12713000,0.0324,0.013523,0.002678,0.000431,0.003291
12714000,0.0324,0.013523,0.002678,0.000431,0.003526
12715000,0.0324,0.013523,0.002678,0.000431,0.003526
12716000,0.0324,0.013523,0.002678,0.000431,0.003643
12717000,0.0324,0.013523,0.002678,0.000431,0.003408
12718000,0.0324,0.013523,0.002678,0.000431,0.003408
12719000,0.0324,0.013523,0.002678,0.000431,0.003526
12720000,0.0324,0.013523,0.002678,0.000431,0.002938
12721000,0.0324,0.013523,0.002678,0.000431,0.004113
12722000,0.0324,0.013523,0.002678,0.000431,0.003173
12723000,0.0324,0.013523,0.002678,0.000431,0.002938
12724000,0.0324,0.013523,0.002678,0.000431,0.003526
12725000,0.0324,0.013523,0.002678,0.000431,0.003173
12726000,0.0324,0.013523,0.002678,0.000431,0.003526
12727000,0.0324,0.013523,0.002678,0.000431,0.003408
12728000,0.0324,0.013523,0.002678,0.000431,0.003526
12729000,0.0324,0.013523,0.002678,0.000431,0.003526
12730000,0.0324,0.013523,0.002678,0.000431,0.003056
12731000,0.0324,0.013523,0.002678,0.000431,0.003526
12732000,0.0324,0.013523,0.002678,0.000431,0.003643
12733000,0.0324,0.013523,0.002678,0.000431,0.002821
12734000,0.0324,0.013523,0.002678,0.000431,0.003761
12735000,0.0324,0.013523,0.002678,0.000431,0.003173
12736000,0.0324,0.013523,0.002678,0.000431,0.003761
12737000,0.0324,0.013523,0.002678,0.000431,0.003173
12738000,0.0324,0.013523,0.002678,0.000431,0.003291
12739000,0.0324,0.013523,0.002678,0.000431,0.003643
12740000,0.0324,0.013523,0.002678,0.000431,0.003173
12741000,0.0324,0.013523,0.002678,0.000431,0.003643
12742000,0.0324,0.013523,0.002678,0.000431,0.003526
12743000,0.0324,0.013523,0.002678,0.000431,0.003761
12744000,0.0324,0.013523,0.002678,0.000431,0.003291
12745000,0.0324,0.013523,0.002678,0.000431,0.003056
12746000,0.0324,0.013523,0.002678,0.000431,0.003761
12747000,0.0324,0.013523,0.002678,0.000431,0.002938
12748000,0.0324,0.013523,0.002678,0.000431,0.003643
12749000,0.0324,0.013523,0.002678,0.000431,0.003643
12750000,0.0324,0.013523,0.002678,0.000431,0.003291
12751000,0.0324,0.013523,0.002678,0.000431,0.003526
12752000,0.0324,0.013523,0.002678,0.000431,0.003291
12753000,0.0324,0.013523,0.002678,0.000431,0.003643
12754000,0.0324,0.013523,0.002678,0.000431,0.003408
12755000,0.0324,0.013523,0.002678,0.000431,0.003173
12756000,0.0324,0.013523,0.002678,0.000431,0.003643
12757000,0.0324,0.013523,0.002678,0.000431,0.003408
12758000,0.0324,0.013523,0.002678,0.000431,0.003408
12759000,0.0324,0.013523,0.002678,0.000431,0.003056
12760000,0.0324,0.013523,0.002678,0.000431,0.003878
12761000,0.0324,0.013523,0.002678,0.000431,0.003056
12762000,0.0324,0.013523,0.002678,0.000431,0.003526
12763000,0.0324,0.013523,0.002678,0.000431,0.003761
12764000,0.0324,0.013523,0.002678,0.000431,0.002938
12765000,0.0324,0.013523,0.002678,0.000431,0.003526
12766000,0.0324,0.013523,0.002678,0.000431,0.003761
12767000,0.0324,0.013523,0.002678,0.000431,0.003291
12768000,0.0324,0.013523,0.002678,0.000431,0.003526
12769000,0.0324,0.013523,0.002678,0.000431,0.003291
12770000,0.0324,0.013523,0.002678,0.000431,0.003408
12771000,0.0324,0.013523,0.002678,0.000431,0.003526
12772000,0.0324,0.013523,0.002678,0.000431,0.003526
12773000,0.0324,0.013523,0.002678,0.000431,0.003173
12774000,0.0324,0.013523,0.002678,0.000431,0.003878
12775000,0.0324,0.013523,0.002678,0.000431,0.003291
12776000,0.0324,0.013523,0.002678,0.000431,0.003173
12777000,0.0324,0.013523,0.002678,0.000431,0.003761
12778000,0.0324,0.013523,0.002678,0.000431,0.003291
12779000,0.0324,0.013523,0.002678,0.000431,0.003643
12780000,0.0324,0.013523,0.002678,0.000431,0.003408
12781000,0.0324,0.013523,0.002678,0.000431,0.003878
12782000,0.0324,0.013523,0.002678,0.000431,0.002938
12783000,0.0324,0.013523,0.002678,0.000431,0.004231
12784000,0.0324,0.013523,0.002678,0.000431,0.003056
12785000,0.0324,0.013523,0.002678,0.000431,0.003526
12786000,0.0324,0.013523,0.002678,0.000431,0.003056
12787000,0.0324,0.013523,0.002678,0.000431,0.003878
12788000,0.0324,0.013523,0.002678,0.000431,0.003761
12789000,0.0324,0.013523,0.002678,0.000431,0.003291
12790000,0.0324,0.013523,0.002678,0.000431,0.003526
12791000,0.0324,0.013523,0.002678,0.000431,0.003643
12792000,0.0324,0.013523,0.002678,0.000431,0.003173
12793000,0.0324,0.013523,0.002678,0.000431,0.003643
12794000,0.0324,0.013523,0.002678,0.000431,0.003643
12795000,0.0324,0.013523,0.002678,0.000431,0.002938
12796000,0.0324,0.013523,0.002678,0.000431,0.003761
12797000,0.0324,0.013523,0.002678,0.000431,0.003291
12798000,0.0324,0.013523,0.002678,0.000431,0.003291
12799000,0.0324,0.013523,0.002678,0.000431,0.003173
12800000,0.0324,0.013523,0.002678,0.000431,0.003408
12801000,0.0324,0.013523,0.002678,0.000431,0.003761
12802000,0.0324,0.013523,0.002678,0.000431,0.003526
12803000,0.0324,0.013523,0.002678,0.000431,0.003408
12804000,0.0324,0.013523,0.002678,0.000431,0.003408
12805000,0.0324,0.013523,0.002678,0.000431,0.003761
12806000,0.0324,0.013523,0.002678,0.000431,0.003291
12807000,0.0324,0.013523,0.002678,0.000431,0.003526
12808000,0.0324,0.013523,0.002678,0.000431,0.003526
12809000,0.0324,0.013523,0.002678,0.000431,0.003526
12810000,0.0324,0.013523,0.002678,0.000431,0.003643
12811000,0.0324,0.013523,0.002678,0.000431,0.003291
12812000,0.0324,0.013523,0.002678,0.000431,0.003526
12813000,0.0324,0.013523,0.002678,0.000431,0.003173
12814000,0.0324,0.013523,0.002678,0.000431,0.003996
12815000,0.0324,0.013523,0.002678,0.000431,0.003526
12816000,0.0324,0.013523,0.002678,0.000431,0.002938
12817000,0.0324,0.013523,0.002678,0.000431,0.003526
12818000,0.0324,0.013523,0.002678,0.000431,0.004113
12819000,0.0324,0.013523,0.002678,0.000431,0.002938
12820000,0.0324,0.013523,0.002678,0.000431,0.003408
12821000,0.0324,0.013523,0.002678,0.000431,0.003761
12822000,0.0324,0.013523,0.002678,0.000431,0.003408
12823000,0.0324,0.013523,0.002678,0.000431,0.003408
12824000,0.0324,0.013523,0.002678,0.000431,0.003643
12825000,0.0324,0.013523,0.002678,0.000431,0.003291
12826000,0.0324,0.013523,0.002678,0.000431,0.003526
12827000,0.0324,0.013523,0.002678,0.000431,0.003408
12828000,0.0324,0.013523,0.002678,0.000431,0.003526
12829000,0.0324,0.013523,0.002678,0.000431,0.003408
12830000,0.0324,0.013523,0.002678,0.000431,0.003173
12831000,0.0324,0.013523,0.002678,0.000431,0.003643
12832000,0.0324,0.013523,0.002678,0.000431,0.003526
12833000,0.0324,0.013523,0.002678,0.000431,0.003173
12834000,0.0324,0.013523,0.002678,0.000431,0.003408
12835000,0.0324,0.013523,0.002678,0.000431,0.003526
12836000,0.0324,0.013523,0.002678,0.000431,0.003408
12837000,0.0324,0.013523,0.002678,0.000431,0.003291
12838000,0.0324,0.013523,0.002678,0.000431,0.003996
12839000,0.0324,0.013523,0.002678,0.000431,0.003408
12840000,0.0324,0.013523,0.002678,0.000431,0.003408
12841000,0.0324,0.013523,0.002678,0.000431,0.003291
12842000,0.0324,0.013523,0.002678,0.000431,0.003173
12843000,0.0324,0.013523,0.002678,0.000431,0.003408
12844000,0.0324,0.013523,0.002678,0.000431,0.003878
12845000,0.0324,0.013523,0.002678,0.000431,0.003408
12846000,0.0324,0.013523,0.002678,0.000431,0.003761
12847000,0.0324,0.013523,0.002678,0.000431,0.002938
12848000,0.0324,0.013523,0.002678,0.000431,0.003761
12849000,0.0324,0.013523,0.002678,0.000431,0.003878
12850000,0.0324,0.013523,0.002678,0.000431,0.003291
12851000,0.0324,0.013523,0.002678,0.000431,0.003291
12852000,0.0324,0.013523,0.002678,0.000431,0.003878
12853000,0.0324,0.013523,0.002678,0.000431,0.002938
12854000,0.0324,0.013523,0.002678,0.000431,0.003526
12855000,0.0324,0.013523,0.002678,0.000431,0.003761
12856000,0.0324,0.013523,0.002678,0.000431,0.003526
12857000,0.0324,0.013523,0.002678,0.000431,0.003526
12858000,0.0324,0.013523,0.002678,0.000431,0.003643
12859000,0.0324,0.013523,0.002678,0.000431,0.003291
12860000,0.0324,0.013523,0.002678,0.000431,0.003173
12861000,0.0324,0.013523,0.002678,0.000431,0.003643
12862000,0.0324,0.013523,0.002678,0.000431,0.003761
12863000,0.0324,0.013523,0.002678,0.000431,0.003526
12864000,0.0324,0.013523,0.002678,0.000431,0.003643
12865000,0.0324,0.013523,0.002678,0.000431,0.003173
12866000,0.0324,0.013523,0.002678,0.000431,0.003761
12867000,0.0324,0.013523,0.002678,0.000431,0.003526
12868000,0.0324,0.013523,0.002678,0.000431,0.003173
12869000,0.0324,0.013523,0.002678,0.000431,0.003878
12870000,0.0324,0.013523,0.002678,0.000431,0.003056
12871000,0.0324,0.013523,0.002678,0.000431,0.003291
12872000,0.0324,0.013523,0.002678,0.000431,0.003643
12873000,0.0324,0.013523,0.002678,0.000431,0.003408
12874000,0.0324,0.013523,0.002678,0.000431,0.003643
12875000,0.0324,0.013523,0.002678,0.000431,0.003408
12876000,0.0324,0.013523,0.002678,0.000431,0.003291
12877000,0.0324,0.013523,0.002678,0.000431,0.003643
12878000,0.0324,0.013523,0.002678,0.000431,0.003408
12879000,0.0324,0.013523,0.002678,0.000431,0.003643
12880000,0.0324,0.013523,0.002678,0.000431,0.003643
12881000,0.0324,0.013523,0.002678,0.000431,0.003291
12882000,0.0324,0.013523,0.002678,0.000431,0.003526
12883000,0.0324,0.013523,0.002678,0.000431,0.003291
12884000,0.0324,0.013523,0.002678,0.000431,0.003173
12885000,0.0324,0.013523,0.002678,0.000431,0.003526
12886000,0.0324,0.013523,0.002678,0.000431,0.003643
12887000,0.0324,0.013523,0.002678,0.000431,0.003526
12888000,0.0324,0.013523,0.002678,0.000431,0.003056
12889000,0.0324,0.013523,0.002678,0.000431,0.003643
12890000,0.0324,0.013523,0.002678,0.000431,0.003291
12891000,0.0324,0.013523,0.002678,0.000431,0.003643
12892000,0.0324,0.013523,0.002678,0.000431,0.003526
12893000,0.0324,0.013523,0.002678,0.000431,0.003526
12894000,0.0324,0.013523,0.002678,0.000431,0.003173
12895000,0.0324,0.013523,0.002678,0.000431,0.003526
12896000,0.0324,0.013523,0.002678,0.000431,0.003526
12897000,0.0324,0.013523,0.002678,0.000431,0.003408
12898000,0.0324,0.013523,0.002678,0.000431,0.003526
12899000,0.0324,0.013523,0.002678,0.000431,0.003526
12900000,0.0324,0.013523,0.002678,0.000431,0.003643
12901000,0.0324,0.013523,0.002678,0.000431,0.003173
12902000,0.0324,0.013523,0.002678,0.000431,0.003056
12903000,0.0324,0.013523,0.002678,0.000431,0.003878
12904000,0.0324,0.013523,0.002678,0.000431,0.003526
12905000,0.0324,0.013523,0.002678,0.000431,0.003408
12906000,0.0324,0.013523,0.002678,0.000431,0.003526
12907000,0.0324,0.013523,0.002678,0.000431,0.003291
12908000,0.0324,0.013523,0.002678,0.000431,0.003173
12909000,0.0324,0.013523,0.002678,0.000431,0.003526
12910000,0.0324,0.013523,0.002678,0.000431,0.003408
12911000,0.0324,0.013523,0.002678,0.000431,0.003643
12912000,0.0324,0.013523,0.002678,0.000431,0.003408
12913000,0.0324,0.013523,0.002678,0.000431,0.003526
12914000,0.0324,0.013523,0.002678,0.000431,0.003643
12915000,0.0324,0.013523,0.002678,0.000431,0.003173
12916000,0.0324,0.013523,0.002678,0.000431,0.003408
12917000,0.0324,0.013523,0.002678,0.000431,0.003526
12918000,0.0324,0.013523,0.002678,0.000431,0.003291
12919000,0.0324,0.013523,0.002678,0.000431,0.003173
12920000,0.0324,0.013523,0.002678,0.000431,0.003761
12921000,0.0324,0.013523,0.002678,0.000431,0.003173
12922000,0.0324,0.013523,0.002678,0.000431,0.003526
12923000,0.0324,0.013523,0.002678,0.000431,0.003408
12924000,0.0324,0.013523,0.002678,0.000431,0.003643
12925000,0.0324,0.013523,0.002678,0.000431,0.003291
12926000,0.0324,0.013523,0.002678,0.000431,0.003408
12927000,0.0324,0.013523,0.002678,0.000431,0.003761
12928000,0.0324,0.013523,0.002678,0.000431,0.003526
12929000,0.0324,0.013523,0.002678,0.000431,0.003408
12930000,0.0324,0.013523,0.002678,0.000431,0.003526
12931000,0.0324,0.013523,0.002678,0.000431,0.003526
12932000,0.0324,0.013523,0.002678,0.000431,0.003173
12933000,0.0324,0.013523,0.002678,0.000431,0.003408
12934000,0.0324,0.013523,0.002678,0.000431,0.003643
12935000,0.0324,0.013523,0.002678,0.000431,0.003291
12936000,0.0324,0.013523,0.002678,0.000431,0.003643
12937000,0.0324,0.013523,0.002678,0.000431,0.003408
12938000,0.0324,0.013523,0.002678,0.000431,0.003643
12939000,0.0324,0.013523,0.002678,0.000431,0.003291
12940000,0.0324,0.013523,0.002678,0.000431,0.003643
12941000,0.0324,0.013523,0.002678,0.000431,0.003643
12942000,0.0324,0.013523,0.002678,0.000431,0.003173
12943000,0.0324,0.013523,0.002678,0.000431,0.003056
12944000,0.0324,0.013523,0.002678,0.000431,0.003761
12945000,0.0324,0.013523,0.002678,0.000431,0.003291
12946000,0.0324,0.013523,0.002678,0.000431,0.003526
12947000,0.0324,0.013523,0.002678,0.000431,0.003408
12948000,0.0324,0.013523,0.002678,0.000431,0.003291
12949000,0.0324,0.013523,0.002678,0.000431,0.003643
12950000,0.0324,0.013523,0.002678,0.000431,0.003408
12951000,0.0324,0.013523,0.002678,0.000431,0.003996
12952000,0.0324,0.013523,0.002678,0.000431,0.003408
12953000,0.0324,0.013523,0.002678,0.000431,0.003173
12954000,0.0324,0.013523,0.002678,0.000431,0.003761
12955000,0.0324,0.013523,0.002678,0.000431,0.003291
12956000,0.0324,0.013523,0.002678,0.000431,0.003291
12957000,0.0324,0.013523,0.002678,0.000431,0.003643
12958000,0.0324,0.013523,0.002678,0.000431,0.003291
12959000,0.0324,0.013523,0.002678,0.000431,0.003643
12960000,0.0324,0.013523,0.002678,0.000431,0.003408
12961000,0.0324,0.013523,0.002678,0.000431,0.002938
12962000,0.0324,0.013523,0.002678,0.000431,0.003761
12963000,0.0324,0.013523,0.002678,0.000431,0.003291
12964000,0.0324,0.013523,0.002678,0.000431,0.002938
12965000,0.0324,0.013523,0.002678,0.000431,0.003996
12966000,0.0324,0.013523,0.002678,0.000431,0.003056
12967000,0.0324,0.013523,0.002678,0.000431,0.003291
12968000,0.0324,0.013523,0.002678,0.000431,0.003878
12969000,0.0324,0.013523,0.002678,0.000431,0.003408
12970000,0.0324,0.013523,0.002678,0.000431,0.003408
12971000,0.0324,0.013523,0.002678,0.000431,0.003526
12972000,0.0324,0.013523,0.002678,0.000431,0.003291
12973000,0.0324,0.013523,0.002678,0.000431,0.003526
12974000,0.0324,0.013523,0.002678,0.000431,0.003173
12975000,0.0324,0.013523,0.002678,0.000431,0.003643
12976000,0.0324,0.013523,0.002678,0.000431,0.003291
12977000,0.0324,0.013523,0.002678,0.000431,0.003408
12978000,0.0324,0.013523,0.002678,0.000431,0.003878
12979000,0.0324,0.013523,0.002678,0.000431,0.003056
12980000,0.0324,0.013523,0.002678,0.000431,0.003291
12981000,0.0324,0.013523,0.002678,0.000431,0.003643
12982000,0.0324,0.013523,0.002678,0.000431,0.003761
12983000,0.0324,0.013523,0.002678,0.000431,0.003291
12984000,0.0324,0.013523,0.002678,0.000431,0.003408
12985000,0.0324,0.013523,0.002678,0.000431,0.003526
12986000,0.0324,0.013523,0.002678,0.000431,0.003761
12987000,0.0324,0.013523,0.002678,0.000431,0.003526
12988000,0.0324,0.013523,0.002678,0.000431,0.003291
12989000,0.0324,0.013523,0.002678,0.000431,0.003761
12990000,0.0324,0.013523,0.002678,0.000431,0.003291
12991000,0.0324,0.013523,0.002678,0.000431,0.003056
12992000,0.0324,0.013523,0.002678,0.000431,0.003996
12993000,0.0324,0.013523,0.002678,0.000431,0.003173
12994000,0.0324,0.013523,0.002678,0.000431,0.003408
12995000,0.0324,0.013523,0.002678,0.000431,0.003526
12996000,0.0324,0.013523,0.002678,0.000431,0.003643
12997000,0.0324,0.013523,0.002678,0.000431,0.003173
12998000,0.0324,0.013523,0.002678,0.000431,0.003173
12999000,0.0324,0.013523,0.002678,0.000431,0.003643
