Cycle,Area(mm^2),PeakDynamic(W),SubthresholdLeakage(W),GateLeakage(W),RunTimeDynamic(W)
70000000,0.0324,0.013523,0.002678,0.000431,0.002821
70001000,0.0324,0.013523,0.002678,0.000431,0.003408
70002000,0.0324,0.013523,0.002678,0.000431,0.003526
70003000,0.0324,0.013523,0.002678,0.000431,0.002821
70004000,0.0324,0.013523,0.002678,0.000431,0.003878
70005000,0.0324,0.013523,0.002678,0.000431,0.006464
70006000,0.0324,0.013523,0.002678,0.000431,0.001058
70007000,0.0324,0.013523,0.002678,0.000431,0.000823
70008000,0.0324,0.013523,0.002678,0.000431,0.000823
70009000,0.0324,0.013523,0.002678,0.000431,0.000823
70010000,0.0324,0.013523,0.002678,0.000431,0.000823
70011000,0.0324,0.013523,0.002678,0.000431,0.000940
70012000,0.0324,0.013523,0.002678,0.000431,0.000705
70013000,0.0324,0.013523,0.002678,0.000431,0.000940
70014000,0.0324,0.013523,0.002678,0.000431,0.000823
70015000,0.0324,0.013523,0.002678,0.000431,0.000823
70016000,0.0324,0.013523,0.002678,0.000431,0.000823
70017000,0.0324,0.013523,0.002678,0.000431,0.000823
70018000,0.0324,0.013523,0.002678,0.000431,0.000940
70019000,0.0324,0.013523,0.002678,0.000431,0.206732
70020000,0.0324,0.013523,0.002678,0.000431,0.505371
70021000,0.0324,0.013523,0.002678,0.000431,0.483864
70022000,0.0324,0.013523,0.002678,0.000431,0.133512
70023000,0.0324,0.013523,0.002678,0.000431,0.134100
70024000,0.0324,0.013523,0.002678,0.000431,0.610559
70025000,0.0324,0.013523,0.002678,0.000431,0.279717
70026000,0.0324,0.013523,0.002678,0.000431,0.273606
70027000,0.0324,0.013523,0.002678,0.000431,0.237524
70028000,0.0324,0.013523,0.002678,0.000431,0.150789
70029000,0.0324,0.013523,0.002678,0.000431,0.154432
70030000,0.0324,0.013523,0.002678,0.000431,0.152434
70031000,0.0324,0.013523,0.002678,0.000431,0.460828
70032000,0.0324,0.013523,0.002678,0.000431,0.111652
70033000,0.0324,0.013523,0.002678,0.000431,0.095080
70034000,0.0324,0.013523,0.002678,0.000431,0.074748
70035000,0.0324,0.013523,0.002678,0.000431,0.046776
70036000,0.0324,0.013523,0.002678,0.000431,0.044191
70037000,0.0324,0.013523,0.002678,0.000431,0.038079
70038000,0.0324,0.013523,0.002678,0.000431,0.034318
70039000,0.0324,0.013523,0.002678,0.000431,0.025621
70040000,0.0324,0.013523,0.002678,0.000431,0.019627
70041000,0.0324,0.013523,0.002678,0.000431,0.017042
70042000,0.0324,0.013523,0.002678,0.000431,0.016101
70043000,0.0324,0.013523,0.002678,0.000431,0.016336
70044000,0.0324,0.013523,0.002678,0.000431,0.013986
70045000,0.0324,0.013523,0.002678,0.000431,0.015631
70046000,0.0324,0.013523,0.002678,0.000431,0.016219
70047000,0.0324,0.013523,0.002678,0.000431,0.013516
70048000,0.0324,0.013523,0.002678,0.000431,0.015631
70049000,0.0324,0.013523,0.002678,0.000431,0.014573
70050000,0.0324,0.013523,0.002678,0.000431,0.012576
70051000,0.0324,0.013523,0.002678,0.000431,0.009990
70052000,0.0324,0.013523,0.002678,0.000431,0.010695
70053000,0.0324,0.013523,0.002678,0.000431,0.009755
70054000,0.0324,0.013523,0.002678,0.000431,0.013986
70055000,0.0324,0.013523,0.002678,0.000431,0.008697
70056000,0.0324,0.013523,0.002678,0.000431,0.008227
70057000,0.0324,0.013523,0.002678,0.000431,0.008932
70058000,0.0324,0.013523,0.002678,0.000431,0.008109
70059000,0.0324,0.013523,0.002678,0.000431,0.008462
70060000,0.0324,0.013523,0.002678,0.000431,0.008462
70061000,0.0324,0.013523,0.002678,0.000431,0.008462
70062000,0.0324,0.013523,0.002678,0.000431,0.008462
70063000,0.0324,0.013523,0.002678,0.000431,0.008109
70064000,0.0324,0.013523,0.002678,0.000431,0.009872
70065000,0.0324,0.013523,0.002678,0.000431,0.007639
70066000,0.0324,0.013523,0.002678,0.000431,0.007874
70067000,0.0324,0.013523,0.002678,0.000431,0.007522
70068000,0.0324,0.013523,0.002678,0.000431,0.007639
70069000,0.0324,0.013523,0.002678,0.000431,0.007404
70070000,0.0324,0.013523,0.002678,0.000431,0.008109
70071000,0.0324,0.013523,0.002678,0.000431,0.007522
70072000,0.0324,0.013523,0.002678,0.000431,0.007639
70073000,0.0324,0.013523,0.002678,0.000431,0.007639
70074000,0.0324,0.013523,0.002678,0.000431,0.007639
70075000,0.0324,0.013523,0.002678,0.000431,0.007404
70076000,0.0324,0.013523,0.002678,0.000431,0.007757
70077000,0.0324,0.013523,0.002678,0.000431,0.007757
70078000,0.0324,0.013523,0.002678,0.000431,0.008345
70079000,0.0324,0.013523,0.002678,0.000431,0.006817
70080000,0.0324,0.013523,0.002678,0.000431,0.008697
70081000,0.0324,0.013523,0.002678,0.000431,0.005876
70082000,0.0324,0.013523,0.002678,0.000431,0.004113
70083000,0.0324,0.013523,0.002678,0.000431,0.004231
70084000,0.0324,0.013523,0.002678,0.000431,0.004466
70085000,0.0324,0.013523,0.002678,0.000431,0.004584
70086000,0.0324,0.013523,0.002678,0.000431,0.004466
70087000,0.0324,0.013523,0.002678,0.000431,0.003878
70088000,0.0324,0.013523,0.002678,0.000431,0.005876
70089000,0.0324,0.013523,0.002678,0.000431,0.003761
70090000,0.0324,0.013523,0.002678,0.000431,0.003173
70091000,0.0324,0.013523,0.002678,0.000431,0.003408
70092000,0.0324,0.013523,0.002678,0.000431,0.003761
70093000,0.0324,0.013523,0.002678,0.000431,0.003761
70094000,0.0324,0.013523,0.002678,0.000431,0.003056
70095000,0.0324,0.013523,0.002678,0.000431,0.003526
70096000,0.0324,0.013523,0.002678,0.000431,0.003761
70097000,0.0324,0.013523,0.002678,0.000431,0.003408
70098000,0.0324,0.013523,0.002678,0.000431,0.003526
70099000,0.0324,0.013523,0.002678,0.000431,0.003408
70100000,0.0324,0.013523,0.002678,0.000431,0.003761
70101000,0.0324,0.013523,0.002678,0.000431,0.003291
70102000,0.0324,0.013523,0.002678,0.000431,0.003291
70103000,0.0324,0.013523,0.002678,0.000431,0.003761
70104000,0.0324,0.013523,0.002678,0.000431,0.003526
70105000,0.0324,0.013523,0.002678,0.000431,0.003408
70106000,0.0324,0.013523,0.002678,0.000431,0.003408
70107000,0.0324,0.013523,0.002678,0.000431,0.003526
70108000,0.0324,0.013523,0.002678,0.000431,0.003643
70109000,0.0324,0.013523,0.002678,0.000431,0.003173
70110000,0.0324,0.013523,0.002678,0.000431,0.003526
70111000,0.0324,0.013523,0.002678,0.000431,0.003761
70112000,0.0324,0.013523,0.002678,0.000431,0.003291
70113000,0.0324,0.013523,0.002678,0.000431,0.003408
70114000,0.0324,0.013523,0.002678,0.000431,0.003643
70115000,0.0324,0.013523,0.002678,0.000431,0.003526
70116000,0.0324,0.013523,0.002678,0.000431,0.003408
70117000,0.0324,0.013523,0.002678,0.000431,0.003291
70118000,0.0324,0.013523,0.002678,0.000431,0.003643
70119000,0.0324,0.013523,0.002678,0.000431,0.003643
70120000,0.0324,0.013523,0.002678,0.000431,0.003408
70121000,0.0324,0.013523,0.002678,0.000431,0.003291
70122000,0.0324,0.013523,0.002678,0.000431,0.003761
70123000,0.0324,0.013523,0.002678,0.000431,0.003291
70124000,0.0324,0.013523,0.002678,0.000431,0.005289
70125000,0.0324,0.013523,0.002678,0.000431,0.002703
70126000,0.0324,0.013523,0.002678,0.000431,0.002703
70127000,0.0324,0.013523,0.002678,0.000431,0.002703
70128000,0.0324,0.013523,0.002678,0.000431,0.002468
70129000,0.0324,0.013523,0.002678,0.000431,0.002586
70130000,0.0324,0.013523,0.002678,0.000431,0.002821
70131000,0.0324,0.013523,0.002678,0.000431,0.002351
70132000,0.0324,0.013523,0.002678,0.000431,0.002703
70133000,0.0324,0.013523,0.002678,0.000431,0.002586
70134000,0.0324,0.013523,0.002678,0.000431,0.002703
70135000,0.0324,0.013523,0.002678,0.000431,0.002586
70136000,0.0324,0.013523,0.002678,0.000431,0.002468
70137000,0.0324,0.013523,0.002678,0.000431,0.002703
70138000,0.0324,0.013523,0.002678,0.000431,0.002586
70139000,0.0324,0.013523,0.002678,0.000431,0.002586
70140000,0.0324,0.013523,0.002678,0.000431,0.002586
70141000,0.0324,0.013523,0.002678,0.000431,0.002703
70142000,0.0324,0.013523,0.002678,0.000431,0.002586
70143000,0.0324,0.013523,0.002678,0.000431,0.002468
70144000,0.0324,0.013523,0.002678,0.000431,0.002703
70145000,0.0324,0.013523,0.002678,0.000431,0.002703
70146000,0.0324,0.013523,0.002678,0.000431,0.002586
70147000,0.0324,0.013523,0.002678,0.000431,0.002351
70148000,0.0324,0.013523,0.002678,0.000431,0.002821
70149000,0.0324,0.013523,0.002678,0.000431,0.002703
70150000,0.0324,0.013523,0.002678,0.000431,0.002351
70151000,0.0324,0.013523,0.002678,0.000431,0.003643
70152000,0.0324,0.013523,0.002678,0.000431,0.001645
70153000,0.0324,0.013523,0.002678,0.000431,0.001880
70154000,0.0324,0.013523,0.002678,0.000431,0.001763
70155000,0.0324,0.013523,0.002678,0.000431,0.001763
70156000,0.0324,0.013523,0.002678,0.000431,0.001763
70157000,0.0324,0.013523,0.002678,0.000431,0.001645
70158000,0.0324,0.013523,0.002678,0.000431,0.001763
70159000,0.0324,0.013523,0.002678,0.000431,0.001880
70160000,0.0324,0.013523,0.002678,0.000431,0.001763
70161000,0.0324,0.013523,0.002678,0.000431,0.001645
70162000,0.0324,0.013523,0.002678,0.000431,0.001763
70163000,0.0324,0.013523,0.002678,0.000431,0.001763
70164000,0.0324,0.013523,0.002678,0.000431,0.001763
70165000,0.0324,0.013523,0.002678,0.000431,0.001763
70166000,0.0324,0.013523,0.002678,0.000431,0.001763
70167000,0.0324,0.013523,0.002678,0.000431,0.001645
70168000,0.0324,0.013523,0.002678,0.000431,0.001880
70169000,0.0324,0.013523,0.002678,0.000431,0.001763
70170000,0.0324,0.013523,0.002678,0.000431,0.001645
70171000,0.0324,0.013523,0.002678,0.000431,0.001763
70172000,0.0324,0.013523,0.002678,0.000431,0.001763
70173000,0.0324,0.013523,0.002678,0.000431,0.001880
70174000,0.0324,0.013523,0.002678,0.000431,0.001645
70175000,0.0324,0.013523,0.002678,0.000431,0.001763
70176000,0.0324,0.013523,0.002678,0.000431,0.001763
70177000,0.0324,0.013523,0.002678,0.000431,0.001763
70178000,0.0324,0.013523,0.002678,0.000431,0.001763
70179000,0.0324,0.013523,0.002678,0.000431,0.001763
70180000,0.0324,0.013523,0.002678,0.000431,0.001763
70181000,0.0324,0.013523,0.002678,0.000431,0.001763
70182000,0.0324,0.013523,0.002678,0.000431,0.001763
70183000,0.0324,0.013523,0.002678,0.000431,0.001763
70184000,0.0324,0.013523,0.002678,0.000431,0.001645
70185000,0.0324,0.013523,0.002678,0.000431,0.001880
70186000,0.0324,0.013523,0.002678,0.000431,0.001645
70187000,0.0324,0.013523,0.002678,0.000431,0.001880
70188000,0.0324,0.013523,0.002678,0.000431,0.001645
70189000,0.0324,0.013523,0.002678,0.000431,0.001763
70190000,0.0324,0.013523,0.002678,0.000431,0.001763
70191000,0.0324,0.013523,0.002678,0.000431,0.001763
70192000,0.0324,0.013523,0.002678,0.000431,0.001880
70193000,0.0324,0.013523,0.002678,0.000431,0.001645
70194000,0.0324,0.013523,0.002678,0.000431,0.003173
70195000,0.0324,0.013523,0.002678,0.000431,0.000940
70196000,0.0324,0.013523,0.002678,0.000431,0.000940
70197000,0.0324,0.013523,0.002678,0.000431,0.000705
70198000,0.0324,0.013523,0.002678,0.000431,0.000940
70199000,0.0324,0.013523,0.002678,0.000431,0.000940
70200000,0.0324,0.013523,0.002678,0.000431,0.000940
70201000,0.0324,0.013523,0.002678,0.000431,0.000940
70202000,0.0324,0.013523,0.002678,0.000431,0.000823
70203000,0.0324,0.013523,0.002678,0.000431,0.000823
70204000,0.0324,0.013523,0.002678,0.000431,0.000940
70205000,0.0324,0.013523,0.002678,0.000431,0.000823
70206000,0.0324,0.013523,0.002678,0.000431,0.000940
70207000,0.0324,0.013523,0.002678,0.000431,0.000823
70208000,0.0324,0.013523,0.002678,0.000431,0.000940
70209000,0.0324,0.013523,0.002678,0.000431,0.000823
70210000,0.0324,0.013523,0.002678,0.000431,0.000823
70211000,0.0324,0.013523,0.002678,0.000431,0.000940
70212000,0.0324,0.013523,0.002678,0.000431,0.000940
70213000,0.0324,0.013523,0.002678,0.000431,0.000940
70214000,0.0324,0.013523,0.002678,0.000431,0.000705
70215000,0.0324,0.013523,0.002678,0.000431,0.000940
70216000,0.0324,0.013523,0.002678,0.000431,0.000940
70217000,0.0324,0.013523,0.002678,0.000431,0.000823
70218000,0.0324,0.013523,0.002678,0.000431,0.000823
70219000,0.0324,0.013523,0.002678,0.000431,0.000940
70220000,0.0324,0.013523,0.002678,0.000431,0.000823
70221000,0.0324,0.013523,0.002678,0.000431,0.000940
70222000,0.0324,0.013523,0.002678,0.000431,0.000823
70223000,0.0324,0.013523,0.002678,0.000431,0.000940
70224000,0.0324,0.013523,0.002678,0.000431,0.000823
70225000,0.0324,0.013523,0.002678,0.000431,0.000823
70226000,0.0324,0.013523,0.002678,0.000431,0.000940
70227000,0.0324,0.013523,0.002678,0.000431,0.000940
70228000,0.0324,0.013523,0.002678,0.000431,0.000823
70229000,0.0324,0.013523,0.002678,0.000431,0.000823
70230000,0.0324,0.013523,0.002678,0.000431,0.000940
70231000,0.0324,0.013523,0.002678,0.000431,0.000940
70232000,0.0324,0.013523,0.002678,0.000431,0.000705
70233000,0.0324,0.013523,0.002678,0.000431,0.000940
70234000,0.0324,0.013523,0.002678,0.000431,0.000940
70235000,0.0324,0.013523,0.002678,0.000431,0.000940
70236000,0.0324,0.013523,0.002678,0.000431,0.000823
70237000,0.0324,0.013523,0.002678,0.000431,0.000823
70238000,0.0324,0.013523,0.002678,0.000431,0.000940
70239000,0.0324,0.013523,0.002678,0.000431,0.000823
70240000,0.0324,0.013523,0.002678,0.000431,0.000940
70241000,0.0324,0.013523,0.002678,0.000431,0.000823
70242000,0.0324,0.013523,0.002678,0.000431,0.000940
70243000,0.0324,0.013523,0.002678,0.000431,0.000823
70244000,0.0324,0.013523,0.002678,0.000431,0.000823
70245000,0.0324,0.013523,0.002678,0.000431,0.000940
70246000,0.0324,0.013523,0.002678,0.000431,0.000940
70247000,0.0324,0.013523,0.002678,0.000431,0.000823
70248000,0.0324,0.013523,0.002678,0.000431,0.000823
70249000,0.0324,0.013523,0.002678,0.000431,0.000940
70250000,0.0324,0.013523,0.002678,0.000431,0.000940
70251000,0.0324,0.013523,0.002678,0.000431,0.000705
70252000,0.0324,0.013523,0.002678,0.000431,0.000940
70253000,0.0324,0.013523,0.002678,0.000431,0.000940
70254000,0.0324,0.013523,0.002678,0.000431,0.000940
70255000,0.0324,0.013523,0.002678,0.000431,0.000705
70256000,0.0324,0.013523,0.002678,0.000431,0.000940
70257000,0.0324,0.013523,0.002678,0.000431,0.000940
70258000,0.0324,0.013523,0.002678,0.000431,0.000823
70259000,0.0324,0.013523,0.002678,0.000431,0.000823
70260000,0.0324,0.013523,0.002678,0.000431,0.000940
70261000,0.0324,0.013523,0.002678,0.000431,0.000823
70262000,0.0324,0.013523,0.002678,0.000431,0.000940
70263000,0.0324,0.013523,0.002678,0.000431,0.000823
70264000,0.0324,0.013523,0.002678,0.000431,0.000940
70265000,0.0324,0.013523,0.002678,0.000431,0.000823
70266000,0.0324,0.013523,0.002678,0.000431,0.000823
70267000,0.0324,0.013523,0.002678,0.000431,0.000940
70268000,0.0324,0.013523,0.002678,0.000431,0.001645
70269000,0.0324,0.013523,0.002678,0.000431,0.334133
70270000,0.0324,0.013523,0.002678,0.000431,0.683426
70271000,0.0324,0.013523,0.002678,0.000431,0.264203
70272000,0.0324,0.013523,0.002678,0.000431,0.133042
70273000,0.0324,0.013523,0.002678,0.000431,0.149143
70274000,0.0324,0.013523,0.002678,0.000431,0.579179
70275000,0.0324,0.013523,0.002678,0.000431,0.240580
70276000,0.0324,0.013523,0.002678,0.000431,0.302988
70277000,0.0324,0.013523,0.002678,0.000431,0.229297
70278000,0.0324,0.013523,0.002678,0.000431,0.151376
70279000,0.0324,0.013523,0.002678,0.000431,0.145852
70280000,0.0324,0.013523,0.002678,0.000431,0.211786
70281000,0.0324,0.013523,0.002678,0.000431,0.382789
70282000,0.0324,0.013523,0.002678,0.000431,0.058999
70283000,0.0324,0.013523,0.002678,0.000431,0.049949
70284000,0.0324,0.013523,0.002678,0.000431,0.050655
70285000,0.0324,0.013523,0.002678,0.000431,0.038784
70286000,0.0324,0.013523,0.002678,0.000431,0.039960
70287000,0.0324,0.013523,0.002678,0.000431,0.035846
70288000,0.0324,0.013523,0.002678,0.000431,0.029852
70289000,0.0324,0.013523,0.002678,0.000431,0.028559
70290000,0.0324,0.013523,0.002678,0.000431,0.028794
70291000,0.0324,0.013523,0.002678,0.000431,0.021743
70292000,0.0324,0.013523,0.002678,0.000431,0.018569
70293000,0.0324,0.013523,0.002678,0.000431,0.022448
70294000,0.0324,0.013523,0.002678,0.000431,0.021978
70295000,0.0324,0.013523,0.002678,0.000431,0.012458
70296000,0.0324,0.013523,0.002678,0.000431,0.012576
70297000,0.0324,0.013523,0.002678,0.000431,0.012458
70298000,0.0324,0.013523,0.002678,0.000431,0.012576
70299000,0.0324,0.013523,0.002678,0.000431,0.011518
70300000,0.0324,0.013523,0.002678,0.000431,0.011870
70301000,0.0324,0.013523,0.002678,0.000431,0.011988
70302000,0.0324,0.013523,0.002678,0.000431,0.012223
70303000,0.0324,0.013523,0.002678,0.000431,0.012693
70304000,0.0324,0.013523,0.002678,0.000431,0.009872
70305000,0.0324,0.013523,0.002678,0.000431,0.009990
70306000,0.0324,0.013523,0.002678,0.000431,0.012223
70307000,0.0324,0.013523,0.002678,0.000431,0.008227
70308000,0.0324,0.013523,0.002678,0.000431,0.008462
70309000,0.0324,0.013523,0.002678,0.000431,0.009050
70310000,0.0324,0.013523,0.002678,0.000431,0.007287
70311000,0.0324,0.013523,0.002678,0.000431,0.007287
70312000,0.0324,0.013523,0.002678,0.000431,0.006934
70313000,0.0324,0.013523,0.002678,0.000431,0.006582
70314000,0.0324,0.013523,0.002678,0.000431,0.006699
70315000,0.0324,0.013523,0.002678,0.000431,0.006699
70316000,0.0324,0.013523,0.002678,0.000431,0.006582
70317000,0.0324,0.013523,0.002678,0.000431,0.006582
70318000,0.0324,0.013523,0.002678,0.000431,0.008815
70319000,0.0324,0.013523,0.002678,0.000431,0.004819
70320000,0.0324,0.013523,0.002678,0.000431,0.005171
70321000,0.0324,0.013523,0.002678,0.000431,0.004819
70322000,0.0324,0.013523,0.002678,0.000431,0.006817
70323000,0.0324,0.013523,0.002678,0.000431,0.004231
70324000,0.0324,0.013523,0.002678,0.000431,0.003996
70325000,0.0324,0.013523,0.002678,0.000431,0.004113
70326000,0.0324,0.013523,0.002678,0.000431,0.004231
70327000,0.0324,0.013523,0.002678,0.000431,0.004349
70328000,0.0324,0.013523,0.002678,0.000431,0.003878
70329000,0.0324,0.013523,0.002678,0.000431,0.004349
70330000,0.0324,0.013523,0.002678,0.000431,0.004231
70331000,0.0324,0.013523,0.002678,0.000431,0.007757
70332000,0.0324,0.013523,0.002678,0.000431,0.002468
70333000,0.0324,0.013523,0.002678,0.000431,0.002703
70334000,0.0324,0.013523,0.002678,0.000431,0.002468
70335000,0.0324,0.013523,0.002678,0.000431,0.002233
70336000,0.0324,0.013523,0.002678,0.000431,0.002586
70337000,0.0324,0.013523,0.002678,0.000431,0.002586
70338000,0.0324,0.013523,0.002678,0.000431,0.002586
70339000,0.0324,0.013523,0.002678,0.000431,0.002233
70340000,0.0324,0.013523,0.002678,0.000431,0.002703
70341000,0.0324,0.013523,0.002678,0.000431,0.002468
70342000,0.0324,0.013523,0.002678,0.000431,0.002468
70343000,0.0324,0.013523,0.002678,0.000431,0.002468
70344000,0.0324,0.013523,0.002678,0.000431,0.002468
70345000,0.0324,0.013523,0.002678,0.000431,0.002586
70346000,0.0324,0.013523,0.002678,0.000431,0.002116
70347000,0.0324,0.013523,0.002678,0.000431,0.002821
70348000,0.0324,0.013523,0.002678,0.000431,0.002351
70349000,0.0324,0.013523,0.002678,0.000431,0.002586
70350000,0.0324,0.013523,0.002678,0.000431,0.002586
70351000,0.0324,0.013523,0.002678,0.000431,0.002351
70352000,0.0324,0.013523,0.002678,0.000431,0.002586
70353000,0.0324,0.013523,0.002678,0.000431,0.002351
70354000,0.0324,0.013523,0.002678,0.000431,0.002586
70355000,0.0324,0.013523,0.002678,0.000431,0.003878
70356000,0.0324,0.013523,0.002678,0.000431,0.000823
70357000,0.0324,0.013523,0.002678,0.000431,0.000823
70358000,0.0324,0.013523,0.002678,0.000431,0.014103
70359000,0.0324,0.013523,0.002678,0.000431,0.490328
70360000,0.0324,0.013523,0.002678,0.000431,0.596220
70361000,0.0324,0.013523,0.002678,0.000431,0.134452
70362000,0.0324,0.013523,0.002678,0.000431,0.130691
70363000,0.0324,0.013523,0.002678,0.000431,0.397715
70364000,0.0324,0.013523,0.002678,0.000431,0.393719
70365000,0.0324,0.013523,0.002678,0.000431,0.256446
70366000,0.0324,0.013523,0.002678,0.000431,0.343300
70367000,0.0324,0.013523,0.002678,0.000431,0.172649
70368000,0.0324,0.013523,0.002678,0.000431,0.141386
70369000,0.0324,0.013523,0.002678,0.000431,0.111417
70370000,0.0324,0.013523,0.002678,0.000431,0.323085
70371000,0.0324,0.013523,0.002678,0.000431,0.298992
70372000,0.0324,0.013523,0.002678,0.000431,0.057471
70373000,0.0324,0.013523,0.002678,0.000431,0.051007
70374000,0.0324,0.013523,0.002678,0.000431,0.040782
70375000,0.0324,0.013523,0.002678,0.000431,0.028207
70376000,0.0324,0.013523,0.002678,0.000431,0.032320
70377000,0.0324,0.013523,0.002678,0.000431,0.025504
70378000,0.0324,0.013523,0.002678,0.000431,0.021038
70379000,0.0324,0.013523,0.002678,0.000431,0.018217
70380000,0.0324,0.013523,0.002678,0.000431,0.009755
70381000,0.0324,0.013523,0.002678,0.000431,0.012340
70382000,0.0324,0.013523,0.002678,0.000431,0.011870
70383000,0.0324,0.013523,0.002678,0.000431,0.008109
70384000,0.0324,0.013523,0.002678,0.000431,0.010107
70385000,0.0324,0.013523,0.002678,0.000431,0.007757
70386000,0.0324,0.013523,0.002678,0.000431,0.008109
70387000,0.0324,0.013523,0.002678,0.000431,0.008227
70388000,0.0324,0.013523,0.002678,0.000431,0.007757
70389000,0.0324,0.013523,0.002678,0.000431,0.009520
70390000,0.0324,0.013523,0.002678,0.000431,0.008815
70391000,0.0324,0.013523,0.002678,0.000431,0.008345
70392000,0.0324,0.013523,0.002678,0.000431,0.006347
70393000,0.0324,0.013523,0.002678,0.000431,0.005994
70394000,0.0324,0.013523,0.002678,0.000431,0.006347
70395000,0.0324,0.013523,0.002678,0.000431,0.005759
70396000,0.0324,0.013523,0.002678,0.000431,0.005406
70397000,0.0324,0.013523,0.002678,0.000431,0.005171
70398000,0.0324,0.013523,0.002678,0.000431,0.004936
70399000,0.0324,0.013523,0.002678,0.000431,0.005171
70400000,0.0324,0.013523,0.002678,0.000431,0.004819
70401000,0.0324,0.013523,0.002678,0.000431,0.004936
70402000,0.0324,0.013523,0.002678,0.000431,0.005171
70403000,0.0324,0.013523,0.002678,0.000431,0.004936
70404000,0.0324,0.013523,0.002678,0.000431,0.005054
70405000,0.0324,0.013523,0.002678,0.000431,0.005171
70406000,0.0324,0.013523,0.002678,0.000431,0.004936
70407000,0.0324,0.013523,0.002678,0.000431,0.005171
70408000,0.0324,0.013523,0.002678,0.000431,0.005054
70409000,0.0324,0.013523,0.002678,0.000431,0.004936
70410000,0.0324,0.013523,0.002678,0.000431,0.005289
70411000,0.0324,0.013523,0.002678,0.000431,0.004819
70412000,0.0324,0.013523,0.002678,0.000431,0.005171
70413000,0.0324,0.013523,0.002678,0.000431,0.004936
70414000,0.0324,0.013523,0.002678,0.000431,0.004819
70415000,0.0324,0.013523,0.002678,0.000431,0.005289
70416000,0.0324,0.013523,0.002678,0.000431,0.005171
70417000,0.0324,0.013523,0.002678,0.000431,0.004819
70418000,0.0324,0.013523,0.002678,0.000431,0.005054
70419000,0.0324,0.013523,0.002678,0.000431,0.004936
70420000,0.0324,0.013523,0.002678,0.000431,0.007169
70421000,0.0324,0.013523,0.002678,0.000431,0.003291
70422000,0.0324,0.013523,0.002678,0.000431,0.003408
70423000,0.0324,0.013523,0.002678,0.000431,0.003643
70424000,0.0324,0.013523,0.002678,0.000431,0.003056
70425000,0.0324,0.013523,0.002678,0.000431,0.003643
70426000,0.0324,0.013523,0.002678,0.000431,0.003291
70427000,0.0324,0.013523,0.002678,0.000431,0.003526
70428000,0.0324,0.013523,0.002678,0.000431,0.003408
70429000,0.0324,0.013523,0.002678,0.000431,0.003173
70430000,0.0324,0.013523,0.002678,0.000431,0.003526
70431000,0.0324,0.013523,0.002678,0.000431,0.003526
70432000,0.0324,0.013523,0.002678,0.000431,0.003173
70433000,0.0324,0.013523,0.002678,0.000431,0.003643
70434000,0.0324,0.013523,0.002678,0.000431,0.004113
70435000,0.0324,0.013523,0.002678,0.000431,0.003526
70436000,0.0324,0.013523,0.002678,0.000431,0.002586
70437000,0.0324,0.013523,0.002678,0.000431,0.002351
70438000,0.0324,0.013523,0.002678,0.000431,0.002821
70439000,0.0324,0.013523,0.002678,0.000431,0.002468
70440000,0.0324,0.013523,0.002678,0.000431,0.002468
70441000,0.0324,0.013523,0.002678,0.000431,0.002586
70442000,0.0324,0.013523,0.002678,0.000431,0.002586
70443000,0.0324,0.013523,0.002678,0.000431,0.004113
70444000,0.0324,0.013523,0.002678,0.000431,0.001880
70445000,0.0324,0.013523,0.002678,0.000431,0.001410
70446000,0.0324,0.013523,0.002678,0.000431,0.001645
70447000,0.0324,0.013523,0.002678,0.000431,0.001880
70448000,0.0324,0.013523,0.002678,0.000431,0.001645
70449000,0.0324,0.013523,0.002678,0.000431,0.001410
70450000,0.0324,0.013523,0.002678,0.000431,0.001645
70451000,0.0324,0.013523,0.002678,0.000431,0.001880
70452000,0.0324,0.013523,0.002678,0.000431,0.001645
70453000,0.0324,0.013523,0.002678,0.000431,0.001410
70454000,0.0324,0.013523,0.002678,0.000431,0.001880
70455000,0.0324,0.013523,0.002678,0.000431,0.001645
70456000,0.0324,0.013523,0.002678,0.000431,0.001645
70457000,0.0324,0.013523,0.002678,0.000431,0.001528
70458000,0.0324,0.013523,0.002678,0.000431,0.001763
70459000,0.0324,0.013523,0.002678,0.000431,0.001645
70460000,0.0324,0.013523,0.002678,0.000431,0.001528
70461000,0.0324,0.013523,0.002678,0.000431,0.001528
70462000,0.0324,0.013523,0.002678,0.000431,0.001645
70463000,0.0324,0.013523,0.002678,0.000431,0.001058
70464000,0.0324,0.013523,0.002678,0.000431,0.000823
70465000,0.0324,0.013523,0.002678,0.000431,0.014573
70466000,0.0324,0.013523,0.002678,0.000431,0.526761
70467000,0.0324,0.013523,0.002678,0.000431,0.591754
70468000,0.0324,0.013523,0.002678,0.000431,0.132572
70469000,0.0324,0.013523,0.002678,0.000431,0.133982
70470000,0.0324,0.013523,0.002678,0.000431,0.462473
70471000,0.0324,0.013523,0.002678,0.000431,0.293350
70472000,0.0324,0.013523,0.002678,0.000431,0.231060
70473000,0.0324,0.013523,0.002678,0.000431,0.358696
70474000,0.0324,0.013523,0.002678,0.000431,0.167948
70475000,0.0324,0.013523,0.002678,0.000431,0.139153
70476000,0.0324,0.013523,0.002678,0.000431,0.124462
70477000,0.0324,0.013523,0.002678,0.000431,0.293938
70478000,0.0324,0.013523,0.002678,0.000431,0.322732
70479000,0.0324,0.013523,0.002678,0.000431,0.082857
70480000,0.0324,0.013523,0.002678,0.000431,0.072162
70481000,0.0324,0.013523,0.002678,0.000431,0.046894
70482000,0.0324,0.013523,0.002678,0.000431,0.039489
70483000,0.0324,0.013523,0.002678,0.000431,0.037374
70484000,0.0324,0.013523,0.002678,0.000431,0.038432
70485000,0.0324,0.013523,0.002678,0.000431,0.026326
70486000,0.0324,0.013523,0.002678,0.000431,0.022800
70487000,0.0324,0.013523,0.002678,0.000431,0.021390
70488000,0.0324,0.013523,0.002678,0.000431,0.018805
70489000,0.0324,0.013523,0.002678,0.000431,0.020920
70490000,0.0324,0.013523,0.002678,0.000431,0.017747
70491000,0.0324,0.013523,0.002678,0.000431,0.015984
70492000,0.0324,0.013523,0.002678,0.000431,0.019510
70493000,0.0324,0.013523,0.002678,0.000431,0.014809
70494000,0.0324,0.013523,0.002678,0.000431,0.011635
70495000,0.0324,0.013523,0.002678,0.000431,0.013398
70496000,0.0324,0.013523,0.002678,0.000431,0.009872
70497000,0.0324,0.013523,0.002678,0.000431,0.009755
70498000,0.0324,0.013523,0.002678,0.000431,0.012458
70499000,0.0324,0.013523,0.002678,0.000431,0.008932
70500000,0.0324,0.013523,0.002678,0.000431,0.008697
70501000,0.0324,0.013523,0.002678,0.000431,0.009050
70502000,0.0324,0.013523,0.002678,0.000431,0.009167
70503000,0.0324,0.013523,0.002678,0.000431,0.009050
70504000,0.0324,0.013523,0.002678,0.000431,0.009990
70505000,0.0324,0.013523,0.002678,0.000431,0.009167
70506000,0.0324,0.013523,0.002678,0.000431,0.008227
70507000,0.0324,0.013523,0.002678,0.000431,0.007757
70508000,0.0324,0.013523,0.002678,0.000431,0.006699
70509000,0.0324,0.013523,0.002678,0.000431,0.007757
70510000,0.0324,0.013523,0.002678,0.000431,0.008345
70511000,0.0324,0.013523,0.002678,0.000431,0.006699
70512000,0.0324,0.013523,0.002678,0.000431,0.005524
70513000,0.0324,0.013523,0.002678,0.000431,0.005876
70514000,0.0324,0.013523,0.002678,0.000431,0.005641
70515000,0.0324,0.013523,0.002678,0.000431,0.007522
70516000,0.0324,0.013523,0.002678,0.000431,0.005054
70517000,0.0324,0.013523,0.002678,0.000431,0.007052
70518000,0.0324,0.013523,0.002678,0.000431,0.003996
70519000,0.0324,0.013523,0.002678,0.000431,0.004113
70520000,0.0324,0.013523,0.002678,0.000431,0.004231
70521000,0.0324,0.013523,0.002678,0.000431,0.003878
70522000,0.0324,0.013523,0.002678,0.000431,0.003878
70523000,0.0324,0.013523,0.002678,0.000431,0.004113
70524000,0.0324,0.013523,0.002678,0.000431,0.003878
70525000,0.0324,0.013523,0.002678,0.000431,0.004113
70526000,0.0324,0.013523,0.002678,0.000431,0.004231
70527000,0.0324,0.013523,0.002678,0.000431,0.003761
70528000,0.0324,0.013523,0.002678,0.000431,0.004231
70529000,0.0324,0.013523,0.002678,0.000431,0.003996
70530000,0.0324,0.013523,0.002678,0.000431,0.004113
70531000,0.0324,0.013523,0.002678,0.000431,0.003643
70532000,0.0324,0.013523,0.002678,0.000431,0.004349
70533000,0.0324,0.013523,0.002678,0.000431,0.003996
70534000,0.0324,0.013523,0.002678,0.000431,0.004113
70535000,0.0324,0.013523,0.002678,0.000431,0.003878
70536000,0.0324,0.013523,0.002678,0.000431,0.004349
70537000,0.0324,0.013523,0.002678,0.000431,0.003761
70538000,0.0324,0.013523,0.002678,0.000431,0.004113
70539000,0.0324,0.013523,0.002678,0.000431,0.003996
70540000,0.0324,0.013523,0.002678,0.000431,0.004349
70541000,0.0324,0.013523,0.002678,0.000431,0.003408
70542000,0.0324,0.013523,0.002678,0.000431,0.004349
70543000,0.0324,0.013523,0.002678,0.000431,0.004349
70544000,0.0324,0.013523,0.002678,0.000431,0.003761
70545000,0.0324,0.013523,0.002678,0.000431,0.003996
70546000,0.0324,0.013523,0.002678,0.000431,0.004113
70547000,0.0324,0.013523,0.002678,0.000431,0.003878
70548000,0.0324,0.013523,0.002678,0.000431,0.004231
70549000,0.0324,0.013523,0.002678,0.000431,0.003996
70550000,0.0324,0.013523,0.002678,0.000431,0.004113
70551000,0.0324,0.013523,0.002678,0.000431,0.003761
70552000,0.0324,0.013523,0.002678,0.000431,0.004231
70553000,0.0324,0.013523,0.002678,0.000431,0.003878
70554000,0.0324,0.013523,0.002678,0.000431,0.004113
70555000,0.0324,0.013523,0.002678,0.000431,0.003996
70556000,0.0324,0.013523,0.002678,0.000431,0.004231
70557000,0.0324,0.013523,0.002678,0.000431,0.003996
70558000,0.0324,0.013523,0.002678,0.000431,0.003996
70559000,0.0324,0.013523,0.002678,0.000431,0.004113
70560000,0.0324,0.013523,0.002678,0.000431,0.003996
70561000,0.0324,0.013523,0.002678,0.000431,0.003878
70562000,0.0324,0.013523,0.002678,0.000431,0.004231
70563000,0.0324,0.013523,0.002678,0.000431,0.004113
70564000,0.0324,0.013523,0.002678,0.000431,0.003878
70565000,0.0324,0.013523,0.002678,0.000431,0.003878
70566000,0.0324,0.013523,0.002678,0.000431,0.004231
70567000,0.0324,0.013523,0.002678,0.000431,0.003996
70568000,0.0324,0.013523,0.002678,0.000431,0.003996
70569000,0.0324,0.013523,0.002678,0.000431,0.004113
70570000,0.0324,0.013523,0.002678,0.000431,0.004113
70571000,0.0324,0.013523,0.002678,0.000431,0.003643
70572000,0.0324,0.013523,0.002678,0.000431,0.006347
70573000,0.0324,0.013523,0.002678,0.000431,0.003408
70574000,0.0324,0.013523,0.002678,0.000431,0.003173
70575000,0.0324,0.013523,0.002678,0.000431,0.002938
70576000,0.0324,0.013523,0.002678,0.000431,0.003173
70577000,0.0324,0.013523,0.002678,0.000431,0.002586
70578000,0.0324,0.013523,0.002678,0.000431,0.002468
70579000,0.0324,0.013523,0.002678,0.000431,0.002468
70580000,0.0324,0.013523,0.002678,0.000431,0.002586
70581000,0.0324,0.013523,0.002678,0.000431,0.002821
70582000,0.0324,0.013523,0.002678,0.000431,0.002351
70583000,0.0324,0.013523,0.002678,0.000431,0.003291
70584000,0.0324,0.013523,0.002678,0.000431,0.002586
70585000,0.0324,0.013523,0.002678,0.000431,0.001763
70586000,0.0324,0.013523,0.002678,0.000431,0.001645
70587000,0.0324,0.013523,0.002678,0.000431,0.001645
70588000,0.0324,0.013523,0.002678,0.000431,0.001880
70589000,0.0324,0.013523,0.002678,0.000431,0.001528
70590000,0.0324,0.013523,0.002678,0.000431,0.003761
70591000,0.0324,0.013523,0.002678,0.000431,0.000823
70592000,0.0324,0.013523,0.002678,0.000431,0.000823
70593000,0.0324,0.013523,0.002678,0.000431,0.000823
70594000,0.0324,0.013523,0.002678,0.000431,0.000823
70595000,0.0324,0.013523,0.002678,0.000431,0.000940
70596000,0.0324,0.013523,0.002678,0.000431,0.000705
70597000,0.0324,0.013523,0.002678,0.000431,0.000940
70598000,0.0324,0.013523,0.002678,0.000431,0.000705
70599000,0.0324,0.013523,0.002678,0.000431,0.000940
70600000,0.0324,0.013523,0.002678,0.000431,0.000705
70601000,0.0324,0.013523,0.002678,0.000431,0.013986
70602000,0.0324,0.013523,0.002678,0.000431,0.522060
70603000,0.0324,0.013523,0.002678,0.000431,0.593165
70604000,0.0324,0.013523,0.002678,0.000431,0.137508
70605000,0.0324,0.013523,0.002678,0.000431,0.131632
70606000,0.0324,0.013523,0.002678,0.000431,0.375973
70607000,0.0324,0.013523,0.002678,0.000431,0.392427
70608000,0.0324,0.013523,0.002678,0.000431,0.223186
70609000,0.0324,0.013523,0.002678,0.000431,0.316856
70610000,0.0324,0.013523,0.002678,0.000431,0.183344
70611000,0.0324,0.013523,0.002678,0.000431,0.146558
70612000,0.0324,0.013523,0.002678,0.000431,0.158781
70613000,0.0324,0.013523,0.002678,0.000431,0.145030
70614000,0.0324,0.013523,0.002678,0.000431,0.460710
70615000,0.0324,0.013523,0.002678,0.000431,0.119409
70616000,0.0324,0.013523,0.002678,0.000431,0.091907
70617000,0.0324,0.013523,0.002678,0.000431,0.084503
70618000,0.0324,0.013523,0.002678,0.000431,0.067226
70619000,0.0324,0.013523,0.002678,0.000431,0.052653
70620000,0.0324,0.013523,0.002678,0.000431,0.048774
70621000,0.0324,0.013523,0.002678,0.000431,0.040547
70622000,0.0324,0.013523,0.002678,0.000431,0.045601
70623000,0.0324,0.013523,0.002678,0.000431,0.039607
70624000,0.0324,0.013523,0.002678,0.000431,0.032085
70625000,0.0324,0.013523,0.002678,0.000431,0.027031
70626000,0.0324,0.013523,0.002678,0.000431,0.023623
70627000,0.0324,0.013523,0.002678,0.000431,0.021390
70628000,0.0324,0.013523,0.002678,0.000431,0.020332
70629000,0.0324,0.013523,0.002678,0.000431,0.021038
70630000,0.0324,0.013523,0.002678,0.000431,0.018099
70631000,0.0324,0.013523,0.002678,0.000431,0.017394
70632000,0.0324,0.013523,0.002678,0.000431,0.016336
70633000,0.0324,0.013523,0.002678,0.000431,0.013751
70634000,0.0324,0.013523,0.002678,0.000431,0.012811
70635000,0.0324,0.013523,0.002678,0.000431,0.011753
70636000,0.0324,0.013523,0.002678,0.000431,0.012693
70637000,0.0324,0.013523,0.002678,0.000431,0.011165
70638000,0.0324,0.013523,0.002678,0.000431,0.010342
70639000,0.0324,0.013523,0.002678,0.000431,0.012105
70640000,0.0324,0.013523,0.002678,0.000431,0.012458
70641000,0.0324,0.013523,0.002678,0.000431,0.009872
70642000,0.0324,0.013523,0.002678,0.000431,0.008697
70643000,0.0324,0.013523,0.002678,0.000431,0.009402
70644000,0.0324,0.013523,0.002678,0.000431,0.009167
70645000,0.0324,0.013523,0.002678,0.000431,0.009167
70646000,0.0324,0.013523,0.002678,0.000431,0.009637
70647000,0.0324,0.013523,0.002678,0.000431,0.008580
70648000,0.0324,0.013523,0.002678,0.000431,0.011283
70649000,0.0324,0.013523,0.002678,0.000431,0.007639
70650000,0.0324,0.013523,0.002678,0.000431,0.012811
70651000,0.0324,0.013523,0.002678,0.000431,0.005994
70652000,0.0324,0.013523,0.002678,0.000431,0.005994
70653000,0.0324,0.013523,0.002678,0.000431,0.006111
70654000,0.0324,0.013523,0.002678,0.000431,0.005641
70655000,0.0324,0.013523,0.002678,0.000431,0.006229
70656000,0.0324,0.013523,0.002678,0.000431,0.007287
70657000,0.0324,0.013523,0.002678,0.000431,0.007639
70658000,0.0324,0.013523,0.002678,0.000431,0.005171
70659000,0.0324,0.013523,0.002678,0.000431,0.003526
70660000,0.0324,0.013523,0.002678,0.000431,0.003408
70661000,0.0324,0.013523,0.002678,0.000431,0.003173
70662000,0.0324,0.013523,0.002678,0.000431,0.003761
70663000,0.0324,0.013523,0.002678,0.000431,0.003291
70664000,0.0324,0.013523,0.002678,0.000431,0.003408
70665000,0.0324,0.013523,0.002678,0.000431,0.003291
70666000,0.0324,0.013523,0.002678,0.000431,0.003408
70667000,0.0324,0.013523,0.002678,0.000431,0.003643
70668000,0.0324,0.013523,0.002678,0.000431,0.003173
70669000,0.0324,0.013523,0.002678,0.000431,0.003526
70670000,0.0324,0.013523,0.002678,0.000431,0.003408
70671000,0.0324,0.013523,0.002678,0.000431,0.003408
70672000,0.0324,0.013523,0.002678,0.000431,0.003526
70673000,0.0324,0.013523,0.002678,0.000431,0.003291
70674000,0.0324,0.013523,0.002678,0.000431,0.003526
70675000,0.0324,0.013523,0.002678,0.000431,0.003526
70676000,0.0324,0.013523,0.002678,0.000431,0.003291
70677000,0.0324,0.013523,0.002678,0.000431,0.003408
70678000,0.0324,0.013523,0.002678,0.000431,0.003643
70679000,0.0324,0.013523,0.002678,0.000431,0.003291
70680000,0.0324,0.013523,0.002678,0.000431,0.003526
70681000,0.0324,0.013523,0.002678,0.000431,0.003056
70682000,0.0324,0.013523,0.002678,0.000431,0.003526
70683000,0.0324,0.013523,0.002678,0.000431,0.004819
70684000,0.0324,0.013523,0.002678,0.000431,0.002821
70685000,0.0324,0.013523,0.002678,0.000431,0.002468
70686000,0.0324,0.013523,0.002678,0.000431,0.002586
70687000,0.0324,0.013523,0.002678,0.000431,0.004466
70688000,0.0324,0.013523,0.002678,0.000431,0.003408
70689000,0.0324,0.013523,0.002678,0.000431,0.000940
70690000,0.0324,0.013523,0.002678,0.000431,0.000940
70691000,0.0324,0.013523,0.002678,0.000431,0.000940
70692000,0.0324,0.013523,0.002678,0.000431,0.000823
70693000,0.0324,0.013523,0.002678,0.000431,0.000823
70694000,0.0324,0.013523,0.002678,0.000431,0.000940
70695000,0.0324,0.013523,0.002678,0.000431,0.000823
70696000,0.0324,0.013523,0.002678,0.000431,0.000940
70697000,0.0324,0.013523,0.002678,0.000431,0.000823
70698000,0.0324,0.013523,0.002678,0.000431,0.000940
70699000,0.0324,0.013523,0.002678,0.000431,0.000823
70700000,0.0324,0.013523,0.002678,0.000431,0.000823
70701000,0.0324,0.013523,0.002678,0.000431,0.000940
70702000,0.0324,0.013523,0.002678,0.000431,0.000940
70703000,0.0324,0.013523,0.002678,0.000431,0.000940
70704000,0.0324,0.013523,0.002678,0.000431,0.000705
70705000,0.0324,0.013523,0.002678,0.000431,0.000940
70706000,0.0324,0.013523,0.002678,0.000431,0.000940
70707000,0.0324,0.013523,0.002678,0.000431,0.000823
70708000,0.0324,0.013523,0.002678,0.000431,0.000823
70709000,0.0324,0.013523,0.002678,0.000431,0.000940
70710000,0.0324,0.013523,0.002678,0.000431,0.000940
70711000,0.0324,0.013523,0.002678,0.000431,0.000823
70712000,0.0324,0.013523,0.002678,0.000431,0.000823
70713000,0.0324,0.013523,0.002678,0.000431,0.000940
70714000,0.0324,0.013523,0.002678,0.000431,0.000823
70715000,0.0324,0.013523,0.002678,0.000431,0.000940
70716000,0.0324,0.013523,0.002678,0.000431,0.000823
70717000,0.0324,0.013523,0.002678,0.000431,0.000940
70718000,0.0324,0.013523,0.002678,0.000431,0.000823
70719000,0.0324,0.013523,0.002678,0.000431,0.000823
70720000,0.0324,0.013523,0.002678,0.000431,0.000940
70721000,0.0324,0.013523,0.002678,0.000431,0.000940
70722000,0.0324,0.013523,0.002678,0.000431,0.000823
70723000,0.0324,0.013523,0.002678,0.000431,0.000823
70724000,0.0324,0.013523,0.002678,0.000431,0.000940
70725000,0.0324,0.013523,0.002678,0.000431,0.000940
70726000,0.0324,0.013523,0.002678,0.000431,0.000823
70727000,0.0324,0.013523,0.002678,0.000431,0.000823
70728000,0.0324,0.013523,0.002678,0.000431,0.000940
70729000,0.0324,0.013523,0.002678,0.000431,0.000823
70730000,0.0324,0.013523,0.002678,0.000431,0.000940
70731000,0.0324,0.013523,0.002678,0.000431,0.000823
70732000,0.0324,0.013523,0.002678,0.000431,0.000940
70733000,0.0324,0.013523,0.002678,0.000431,0.000823
70734000,0.0324,0.013523,0.002678,0.000431,0.000823
70735000,0.0324,0.013523,0.002678,0.000431,0.000940
70736000,0.0324,0.013523,0.002678,0.000431,0.000940
70737000,0.0324,0.013523,0.002678,0.000431,0.000823
70738000,0.0324,0.013523,0.002678,0.000431,0.000823
70739000,0.0324,0.013523,0.002678,0.000431,0.000940
70740000,0.0324,0.013523,0.002678,0.000431,0.000940
70741000,0.0324,0.013523,0.002678,0.000431,0.000705
70742000,0.0324,0.013523,0.002678,0.000431,0.214489
70743000,0.0324,0.013523,0.002678,0.000431,0.627248
70744000,0.0324,0.013523,0.002678,0.000431,0.403357
70745000,0.0324,0.013523,0.002678,0.000431,0.132102
70746000,0.0324,0.013523,0.002678,0.000431,0.143384
70747000,0.0324,0.013523,0.002678,0.000431,0.618316
70748000,0.0324,0.013523,0.002678,0.000431,0.257739
70749000,0.0324,0.013523,0.002678,0.000431,0.277837
70750000,0.0324,0.013523,0.002678,0.000431,0.218602
70751000,0.0324,0.013523,0.002678,0.000431,0.144912
70752000,0.0324,0.013523,0.002678,0.000431,0.165127
70753000,0.0324,0.013523,0.002678,0.000431,0.129986
70754000,0.0324,0.013523,0.002678,0.000431,0.483041
70755000,0.0324,0.013523,0.002678,0.000431,0.121172
70756000,0.0324,0.013523,0.002678,0.000431,0.086383
70757000,0.0324,0.013523,0.002678,0.000431,0.085561
70758000,0.0324,0.013523,0.002678,0.000431,0.076393
70759000,0.0324,0.013523,0.002678,0.000431,0.051360
70760000,0.0324,0.013523,0.002678,0.000431,0.041840
70761000,0.0324,0.013523,0.002678,0.000431,0.044308
70762000,0.0324,0.013523,0.002678,0.000431,0.047599
70763000,0.0324,0.013523,0.002678,0.000431,0.036786
70764000,0.0324,0.013523,0.002678,0.000431,0.037021
70765000,0.0324,0.013523,0.002678,0.000431,0.023506
70766000,0.0324,0.013523,0.002678,0.000431,0.024093
70767000,0.0324,0.013523,0.002678,0.000431,0.015279
70768000,0.0324,0.013523,0.002678,0.000431,0.018687
70769000,0.0324,0.013523,0.002678,0.000431,0.012458
70770000,0.0324,0.013523,0.002678,0.000431,0.011753
70771000,0.0324,0.013523,0.002678,0.000431,0.012340
70772000,0.0324,0.013523,0.002678,0.000431,0.012811
70773000,0.0324,0.013523,0.002678,0.000431,0.011870
70774000,0.0324,0.013523,0.002678,0.000431,0.014103
70775000,0.0324,0.013523,0.002678,0.000431,0.011518
70776000,0.0324,0.013523,0.002678,0.000431,0.012340
70777000,0.0324,0.013523,0.002678,0.000431,0.010578
70778000,0.0324,0.013523,0.002678,0.000431,0.010225
70779000,0.0324,0.013523,0.002678,0.000431,0.010813
70780000,0.0324,0.013523,0.002678,0.000431,0.010930
70781000,0.0324,0.013523,0.002678,0.000431,0.009402
70782000,0.0324,0.013523,0.002678,0.000431,0.009990
70783000,0.0324,0.013523,0.002678,0.000431,0.009872
70784000,0.0324,0.013523,0.002678,0.000431,0.009990
70785000,0.0324,0.013523,0.002678,0.000431,0.008932
70786000,0.0324,0.013523,0.002678,0.000431,0.010813
70787000,0.0324,0.013523,0.002678,0.000431,0.010225
70788000,0.0324,0.013523,0.002678,0.000431,0.009167
70789000,0.0324,0.013523,0.002678,0.000431,0.013516
70790000,0.0324,0.013523,0.002678,0.000431,0.007874
70791000,0.0324,0.013523,0.002678,0.000431,0.008109
70792000,0.0324,0.013523,0.002678,0.000431,0.008345
70793000,0.0324,0.013523,0.002678,0.000431,0.009050
70794000,0.0324,0.013523,0.002678,0.000431,0.007404
70795000,0.0324,0.013523,0.002678,0.000431,0.007169
70796000,0.0324,0.013523,0.002678,0.000431,0.006464
70797000,0.0324,0.013523,0.002678,0.000431,0.006934
70798000,0.0324,0.013523,0.002678,0.000431,0.006817
70799000,0.0324,0.013523,0.002678,0.000431,0.006229
70800000,0.0324,0.013523,0.002678,0.000431,0.006699
70801000,0.0324,0.013523,0.002678,0.000431,0.006817
70802000,0.0324,0.013523,0.002678,0.000431,0.008109
70803000,0.0324,0.013523,0.002678,0.000431,0.006347
70804000,0.0324,0.013523,0.002678,0.000431,0.007169
70805000,0.0324,0.013523,0.002678,0.000431,0.004231
70806000,0.0324,0.013523,0.002678,0.000431,0.005054
70807000,0.0324,0.013523,0.002678,0.000431,0.003056
70808000,0.0324,0.013523,0.002678,0.000431,0.003643
70809000,0.0324,0.013523,0.002678,0.000431,0.003408
70810000,0.0324,0.013523,0.002678,0.000431,0.002938
70811000,0.0324,0.013523,0.002678,0.000431,0.003526
70812000,0.0324,0.013523,0.002678,0.000431,0.003408
70813000,0.0324,0.013523,0.002678,0.000431,0.003291
70814000,0.0324,0.013523,0.002678,0.000431,0.003173
70815000,0.0324,0.013523,0.002678,0.000431,0.003526
70816000,0.0324,0.013523,0.002678,0.000431,0.003173
70817000,0.0324,0.013523,0.002678,0.000431,0.003408
70818000,0.0324,0.013523,0.002678,0.000431,0.003291
70819000,0.0324,0.013523,0.002678,0.000431,0.003408
70820000,0.0324,0.013523,0.002678,0.000431,0.003291
70821000,0.0324,0.013523,0.002678,0.000431,0.003173
70822000,0.0324,0.013523,0.002678,0.000431,0.003526
70823000,0.0324,0.013523,0.002678,0.000431,0.003291
70824000,0.0324,0.013523,0.002678,0.000431,0.003291
70825000,0.0324,0.013523,0.002678,0.000431,0.003408
70826000,0.0324,0.013523,0.002678,0.000431,0.003291
70827000,0.0324,0.013523,0.002678,0.000431,0.004936
70828000,0.0324,0.013523,0.002678,0.000431,0.002468
70829000,0.0324,0.013523,0.002678,0.000431,0.002468
70830000,0.0324,0.013523,0.002678,0.000431,0.002821
70831000,0.0324,0.013523,0.002678,0.000431,0.001998
70832000,0.0324,0.013523,0.002678,0.000431,0.003878
70833000,0.0324,0.013523,0.002678,0.000431,0.000823
70834000,0.0324,0.013523,0.002678,0.000431,0.000823
70835000,0.0324,0.013523,0.002678,0.000431,0.000823
70836000,0.0324,0.013523,0.002678,0.000431,0.000823
70837000,0.0324,0.013523,0.002678,0.000431,0.000823
70838000,0.0324,0.013523,0.002678,0.000431,0.000823
70839000,0.0324,0.013523,0.002678,0.000431,0.000940
70840000,0.0324,0.013523,0.002678,0.000431,0.000705
70841000,0.0324,0.013523,0.002678,0.000431,0.222128
70842000,0.0324,0.013523,0.002678,0.000431,0.631832
70843000,0.0324,0.013523,0.002678,0.000431,0.396070
70844000,0.0324,0.013523,0.002678,0.000431,0.132102
70845000,0.0324,0.013523,0.002678,0.000431,0.159838
70846000,0.0324,0.013523,0.002678,0.000431,0.616788
70847000,0.0324,0.013523,0.002678,0.000431,0.252215
70848000,0.0324,0.013523,0.002678,0.000431,0.326493
70849000,0.0324,0.013523,0.002678,0.000431,0.184049
70850000,0.0324,0.013523,0.002678,0.000431,0.157018
70851000,0.0324,0.013523,0.002678,0.000431,0.095903
70852000,0.0324,0.013523,0.002678,0.000431,0.373034
70853000,0.0324,0.013523,0.002678,0.000431,0.239522
70854000,0.0324,0.013523,0.002678,0.000431,0.062760
70855000,0.0324,0.013523,0.002678,0.000431,0.047951
70856000,0.0324,0.013523,0.002678,0.000431,0.035376
70857000,0.0324,0.013523,0.002678,0.000431,0.032085
70858000,0.0324,0.013523,0.002678,0.000431,0.030792
70859000,0.0324,0.013523,0.002678,0.000431,0.028089
70860000,0.0324,0.013523,0.002678,0.000431,0.029147
70861000,0.0324,0.013523,0.002678,0.000431,0.023153
70862000,0.0324,0.013523,0.002678,0.000431,0.020567
70863000,0.0324,0.013523,0.002678,0.000431,0.021860
70864000,0.0324,0.013523,0.002678,0.000431,0.019627
70865000,0.0324,0.013523,0.002678,0.000431,0.018805
70866000,0.0324,0.013523,0.002678,0.000431,0.014573
70867000,0.0324,0.013523,0.002678,0.000431,0.013751
70868000,0.0324,0.013523,0.002678,0.000431,0.011518
70869000,0.0324,0.013523,0.002678,0.000431,0.013046
70870000,0.0324,0.013523,0.002678,0.000431,0.011283
70871000,0.0324,0.013523,0.002678,0.000431,0.013046
70872000,0.0324,0.013523,0.002678,0.000431,0.007757
70873000,0.0324,0.013523,0.002678,0.000431,0.006699
70874000,0.0324,0.013523,0.002678,0.000431,0.007169
70875000,0.0324,0.013523,0.002678,0.000431,0.006699
70876000,0.0324,0.013523,0.002678,0.000431,0.006817
70877000,0.0324,0.013523,0.002678,0.000431,0.007169
70878000,0.0324,0.013523,0.002678,0.000431,0.006111
70879000,0.0324,0.013523,0.002678,0.000431,0.006817
70880000,0.0324,0.013523,0.002678,0.000431,0.005759
70881000,0.0324,0.013523,0.002678,0.000431,0.006699
70882000,0.0324,0.013523,0.002678,0.000431,0.006582
70883000,0.0324,0.013523,0.002678,0.000431,0.006111
70884000,0.0324,0.013523,0.002678,0.000431,0.006934
70885000,0.0324,0.013523,0.002678,0.000431,0.005994
70886000,0.0324,0.013523,0.002678,0.000431,0.006699
70887000,0.0324,0.013523,0.002678,0.000431,0.005994
70888000,0.0324,0.013523,0.002678,0.000431,0.006582
70889000,0.0324,0.013523,0.002678,0.000431,0.006817
70890000,0.0324,0.013523,0.002678,0.000431,0.006111
70891000,0.0324,0.013523,0.002678,0.000431,0.007992
70892000,0.0324,0.013523,0.002678,0.000431,0.006934
70893000,0.0324,0.013523,0.002678,0.000431,0.005641
70894000,0.0324,0.013523,0.002678,0.000431,0.005759
70895000,0.0324,0.013523,0.002678,0.000431,0.005289
70896000,0.0324,0.013523,0.002678,0.000431,0.005406
70897000,0.0324,0.013523,0.002678,0.000431,0.005876
70898000,0.0324,0.013523,0.002678,0.000431,0.005171
70899000,0.0324,0.013523,0.002678,0.000431,0.005876
70900000,0.0324,0.013523,0.002678,0.000431,0.007404
70901000,0.0324,0.013523,0.002678,0.000431,0.006347
70902000,0.0324,0.013523,0.002678,0.000431,0.005641
70903000,0.0324,0.013523,0.002678,0.000431,0.003526
70904000,0.0324,0.013523,0.002678,0.000431,0.004349
70905000,0.0324,0.013523,0.002678,0.000431,0.003643
70906000,0.0324,0.013523,0.002678,0.000431,0.003996
70907000,0.0324,0.013523,0.002678,0.000431,0.003878
70908000,0.0324,0.013523,0.002678,0.000431,0.003878
70909000,0.0324,0.013523,0.002678,0.000431,0.003761
70910000,0.0324,0.013523,0.002678,0.000431,0.004819
70911000,0.0324,0.013523,0.002678,0.000431,0.004231
70912000,0.0324,0.013523,0.002678,0.000431,0.003056
70913000,0.0324,0.013523,0.002678,0.000431,0.002821
70914000,0.0324,0.013523,0.002678,0.000431,0.003291
70915000,0.0324,0.013523,0.002678,0.000431,0.003761
70916000,0.0324,0.013523,0.002678,0.000431,0.003291
70917000,0.0324,0.013523,0.002678,0.000431,0.003291
70918000,0.0324,0.013523,0.002678,0.000431,0.004466
70919000,0.0324,0.013523,0.002678,0.000431,0.001763
70920000,0.0324,0.013523,0.002678,0.000431,0.001763
70921000,0.0324,0.013523,0.002678,0.000431,0.001645
70922000,0.0324,0.013523,0.002678,0.000431,0.001763
70923000,0.0324,0.013523,0.002678,0.000431,0.001645
70924000,0.0324,0.013523,0.002678,0.000431,0.001763
70925000,0.0324,0.013523,0.002678,0.000431,0.001763
70926000,0.0324,0.013523,0.002678,0.000431,0.001645
70927000,0.0324,0.013523,0.002678,0.000431,0.001645
70928000,0.0324,0.013523,0.002678,0.000431,0.001763
70929000,0.0324,0.013523,0.002678,0.000431,0.001763
70930000,0.0324,0.013523,0.002678,0.000431,0.001645
70931000,0.0324,0.013523,0.002678,0.000431,0.001880
70932000,0.0324,0.013523,0.002678,0.000431,0.001528
70933000,0.0324,0.013523,0.002678,0.000431,0.001763
70934000,0.0324,0.013523,0.002678,0.000431,0.001763
70935000,0.0324,0.013523,0.002678,0.000431,0.001763
70936000,0.0324,0.013523,0.002678,0.000431,0.001645
70937000,0.0324,0.013523,0.002678,0.000431,0.001763
70938000,0.0324,0.013523,0.002678,0.000431,0.001763
70939000,0.0324,0.013523,0.002678,0.000431,0.001880
70940000,0.0324,0.013523,0.002678,0.000431,0.001645
70941000,0.0324,0.013523,0.002678,0.000431,0.001763
70942000,0.0324,0.013523,0.002678,0.000431,0.003526
70943000,0.0324,0.013523,0.002678,0.000431,0.000823
70944000,0.0324,0.013523,0.002678,0.000431,0.000940
70945000,0.0324,0.013523,0.002678,0.000431,0.000823
70946000,0.0324,0.013523,0.002678,0.000431,0.000940
70947000,0.0324,0.013523,0.002678,0.000431,0.000823
70948000,0.0324,0.013523,0.002678,0.000431,0.000823
70949000,0.0324,0.013523,0.002678,0.000431,0.000940
70950000,0.0324,0.013523,0.002678,0.000431,0.000940
70951000,0.0324,0.013523,0.002678,0.000431,0.000823
70952000,0.0324,0.013523,0.002678,0.000431,0.000823
70953000,0.0324,0.013523,0.002678,0.000431,0.000940
70954000,0.0324,0.013523,0.002678,0.000431,0.000940
70955000,0.0324,0.013523,0.002678,0.000431,0.000705
70956000,0.0324,0.013523,0.002678,0.000431,0.000940
70957000,0.0324,0.013523,0.002678,0.000431,0.000940
70958000,0.0324,0.013523,0.002678,0.000431,0.000940
70959000,0.0324,0.013523,0.002678,0.000431,0.000705
70960000,0.0324,0.013523,0.002678,0.000431,0.000940
70961000,0.0324,0.013523,0.002678,0.000431,0.000940
70962000,0.0324,0.013523,0.002678,0.000431,0.000823
70963000,0.0324,0.013523,0.002678,0.000431,0.000823
70964000,0.0324,0.013523,0.002678,0.000431,0.000940
70965000,0.0324,0.013523,0.002678,0.000431,0.000940
70966000,0.0324,0.013523,0.002678,0.000431,0.000823
70967000,0.0324,0.013523,0.002678,0.000431,0.000823
70968000,0.0324,0.013523,0.002678,0.000431,0.000940
70969000,0.0324,0.013523,0.002678,0.000431,0.000823
70970000,0.0324,0.013523,0.002678,0.000431,0.000823
70971000,0.0324,0.013523,0.002678,0.000431,0.000940
70972000,0.0324,0.013523,0.002678,0.000431,0.000940
70973000,0.0324,0.013523,0.002678,0.000431,0.000823
70974000,0.0324,0.013523,0.002678,0.000431,0.000823
70975000,0.0324,0.013523,0.002678,0.000431,0.000940
70976000,0.0324,0.013523,0.002678,0.000431,0.000940
70977000,0.0324,0.013523,0.002678,0.000431,0.000823
70978000,0.0324,0.013523,0.002678,0.000431,0.000823
70979000,0.0324,0.013523,0.002678,0.000431,0.000940
70980000,0.0324,0.013523,0.002678,0.000431,0.000940
70981000,0.0324,0.013523,0.002678,0.000431,0.000823
70982000,0.0324,0.013523,0.002678,0.000431,0.000823
70983000,0.0324,0.013523,0.002678,0.000431,0.000940
70984000,0.0324,0.013523,0.002678,0.000431,0.000823
70985000,0.0324,0.013523,0.002678,0.000431,0.000940
70986000,0.0324,0.013523,0.002678,0.000431,0.000823
70987000,0.0324,0.013523,0.002678,0.000431,0.008697
70988000,0.0324,0.013523,0.002678,0.000431,0.470465
70989000,0.0324,0.013523,0.002678,0.000431,0.622664
70990000,0.0324,0.013523,0.002678,0.000431,0.137626
70991000,0.0324,0.013523,0.002678,0.000431,0.131632
70992000,0.0324,0.013523,0.002678,0.000431,0.294056
70993000,0.0324,0.013523,0.002678,0.000431,0.548974
70994000,0.0324,0.013523,0.002678,0.000431,0.229297
70995000,0.0324,0.013523,0.002678,0.000431,0.311215
70996000,0.0324,0.013523,0.002678,0.000431,0.162424
70997000,0.0324,0.013523,0.002678,0.000431,0.149731
70998000,0.0324,0.013523,0.002678,0.000431,0.121407
70999000,0.0324,0.013523,0.002678,0.000431,0.297346
