Cycle,Area(mm^2),PeakDynamic(W),SubthresholdLeakage(W),GateLeakage(W),RunTimeDynamic(W)
99000000,0.0324,0.013523,0.002678,0.000431,0.003526
99001000,0.0324,0.013523,0.002678,0.000431,0.003056
99002000,0.0324,0.013523,0.002678,0.000431,0.003526
99003000,0.0324,0.013523,0.002678,0.000431,0.003878
99004000,0.0324,0.013523,0.002678,0.000431,0.001528
99005000,0.0324,0.013523,0.002678,0.000431,0.001763
99006000,0.0324,0.013523,0.002678,0.000431,0.001763
99007000,0.0324,0.013523,0.002678,0.000431,0.001645
99008000,0.0324,0.013523,0.002678,0.000431,0.001645
99009000,0.0324,0.013523,0.002678,0.000431,0.001645
99010000,0.0324,0.013523,0.002678,0.000431,0.001645
99011000,0.0324,0.013523,0.002678,0.000431,0.001645
99012000,0.0324,0.013523,0.002678,0.000431,0.001763
99013000,0.0324,0.013523,0.002678,0.000431,0.001645
99014000,0.0324,0.013523,0.002678,0.000431,0.001645
99015000,0.0324,0.013523,0.002678,0.000431,0.001763
99016000,0.0324,0.013523,0.002678,0.000431,0.001528
99017000,0.0324,0.013523,0.002678,0.000431,0.001763
99018000,0.0324,0.013523,0.002678,0.000431,0.001763
99019000,0.0324,0.013523,0.002678,0.000431,0.001528
99020000,0.0324,0.013523,0.002678,0.000431,0.001763
99021000,0.0324,0.013523,0.002678,0.000431,0.001528
99022000,0.0324,0.013523,0.002678,0.000431,0.001763
99023000,0.0324,0.013523,0.002678,0.000431,0.001763
99024000,0.0324,0.013523,0.002678,0.000431,0.001645
99025000,0.0324,0.013523,0.002678,0.000431,0.001645
99026000,0.0324,0.013523,0.002678,0.000431,0.001645
99027000,0.0324,0.013523,0.002678,0.000431,0.001645
99028000,0.0324,0.013523,0.002678,0.000431,0.001763
99029000,0.0324,0.013523,0.002678,0.000431,0.001763
99030000,0.0324,0.013523,0.002678,0.000431,0.001528
99031000,0.0324,0.013523,0.002678,0.000431,0.001763
99032000,0.0324,0.013523,0.002678,0.000431,0.001645
99033000,0.0324,0.013523,0.002678,0.000431,0.001645
99034000,0.0324,0.013523,0.002678,0.000431,0.001763
99035000,0.0324,0.013523,0.002678,0.000431,0.001645
99036000,0.0324,0.013523,0.002678,0.000431,0.001763
99037000,0.0324,0.013523,0.002678,0.000431,0.001528
99038000,0.0324,0.013523,0.002678,0.000431,0.001763
99039000,0.0324,0.013523,0.002678,0.000431,0.001645
99040000,0.0324,0.013523,0.002678,0.000431,0.001645
99041000,0.0324,0.013523,0.002678,0.000431,0.001763
99042000,0.0324,0.013523,0.002678,0.000431,0.001645
99043000,0.0324,0.013523,0.002678,0.000431,0.001645
99044000,0.0324,0.013523,0.002678,0.000431,0.001528
99045000,0.0324,0.013523,0.002678,0.000431,0.001880
99046000,0.0324,0.013523,0.002678,0.000431,0.001645
99047000,0.0324,0.013523,0.002678,0.000431,0.001528
99048000,0.0324,0.013523,0.002678,0.000431,0.001880
99049000,0.0324,0.013523,0.002678,0.000431,0.001763
99050000,0.0324,0.013523,0.002678,0.000431,0.001528
99051000,0.0324,0.013523,0.002678,0.000431,0.001763
99052000,0.0324,0.013523,0.002678,0.000431,0.001645
99053000,0.0324,0.013523,0.002678,0.000431,0.001645
99054000,0.0324,0.013523,0.002678,0.000431,0.001763
99055000,0.0324,0.013523,0.002678,0.000431,0.001645
99056000,0.0324,0.013523,0.002678,0.000431,0.001763
99057000,0.0324,0.013523,0.002678,0.000431,0.001410
99058000,0.0324,0.013523,0.002678,0.000431,0.001880
99059000,0.0324,0.013523,0.002678,0.000431,0.001645
99060000,0.0324,0.013523,0.002678,0.000431,0.001645
99061000,0.0324,0.013523,0.002678,0.000431,0.001763
99062000,0.0324,0.013523,0.002678,0.000431,0.001528
99063000,0.0324,0.013523,0.002678,0.000431,0.001645
99064000,0.0324,0.013523,0.002678,0.000431,0.001880
99065000,0.0324,0.013523,0.002678,0.000431,0.001645
99066000,0.0324,0.013523,0.002678,0.000431,0.003643
99067000,0.0324,0.013523,0.002678,0.000431,0.000940
99068000,0.0324,0.013523,0.002678,0.000431,0.000705
99069000,0.0324,0.013523,0.002678,0.000431,0.000940
99070000,0.0324,0.013523,0.002678,0.000431,0.000823
99071000,0.0324,0.013523,0.002678,0.000431,0.000823
99072000,0.0324,0.013523,0.002678,0.000431,0.000940
99073000,0.0324,0.013523,0.002678,0.000431,0.000705
99074000,0.0324,0.013523,0.002678,0.000431,0.000940
99075000,0.0324,0.013523,0.002678,0.000431,0.000823
99076000,0.0324,0.013523,0.002678,0.000431,0.000823
99077000,0.0324,0.013523,0.002678,0.000431,0.000823
99078000,0.0324,0.013523,0.002678,0.000431,0.000823
99079000,0.0324,0.013523,0.002678,0.000431,0.000823
99080000,0.0324,0.013523,0.002678,0.000431,0.013868
99081000,0.0324,0.013523,0.002678,0.000431,0.502786
99082000,0.0324,0.013523,0.002678,0.000431,0.596338
99083000,0.0324,0.013523,0.002678,0.000431,0.132572
99084000,0.0324,0.013523,0.002678,0.000431,0.132102
99085000,0.0324,0.013523,0.002678,0.000431,0.544978
99086000,0.0324,0.013523,0.002678,0.000431,0.333780
99087000,0.0324,0.013523,0.002678,0.000431,0.274663
99088000,0.0324,0.013523,0.002678,0.000431,0.318384
99089000,0.0324,0.013523,0.002678,0.000431,0.140799
99090000,0.0324,0.013523,0.002678,0.000431,0.171356
99091000,0.0324,0.013523,0.002678,0.000431,0.083563
99092000,0.0324,0.013523,0.002678,0.000431,0.489857
99093000,0.0324,0.013523,0.002678,0.000431,0.145382
99094000,0.0324,0.013523,0.002678,0.000431,0.083680
99095000,0.0324,0.013523,0.002678,0.000431,0.071810
99096000,0.0324,0.013523,0.002678,0.000431,0.064993
99097000,0.0324,0.013523,0.002678,0.000431,0.053945
99098000,0.0324,0.013523,0.002678,0.000431,0.053710
99099000,0.0324,0.013523,0.002678,0.000431,0.044661
99100000,0.0324,0.013523,0.002678,0.000431,0.039607
99101000,0.0324,0.013523,0.002678,0.000431,0.038549
99102000,0.0324,0.013523,0.002678,0.000431,0.036434
99103000,0.0324,0.013523,0.002678,0.000431,0.037962
99104000,0.0324,0.013523,0.002678,0.000431,0.031380
99105000,0.0324,0.013523,0.002678,0.000431,0.029970
99106000,0.0324,0.013523,0.002678,0.000431,0.028207
99107000,0.0324,0.013523,0.002678,0.000431,0.023858
99108000,0.0324,0.013523,0.002678,0.000431,0.028324
99109000,0.0324,0.013523,0.002678,0.000431,0.023976
99110000,0.0324,0.013523,0.002678,0.000431,0.026561
99111000,0.0324,0.013523,0.002678,0.000431,0.024211
99112000,0.0324,0.013523,0.002678,0.000431,0.024916
99113000,0.0324,0.013523,0.002678,0.000431,0.024563
99114000,0.0324,0.013523,0.002678,0.000431,0.020685
99115000,0.0324,0.013523,0.002678,0.000431,0.020567
99116000,0.0324,0.013523,0.002678,0.000431,0.021743
99117000,0.0324,0.013523,0.002678,0.000431,0.022683
99118000,0.0324,0.013523,0.002678,0.000431,0.022213
99119000,0.0324,0.013523,0.002678,0.000431,0.019040
99120000,0.0324,0.013523,0.002678,0.000431,0.018217
99121000,0.0324,0.013523,0.002678,0.000431,0.019510
99122000,0.0324,0.013523,0.002678,0.000431,0.018334
99123000,0.0324,0.013523,0.002678,0.000431,0.019510
99124000,0.0324,0.013523,0.002678,0.000431,0.018569
99125000,0.0324,0.013523,0.002678,0.000431,0.018099
99126000,0.0324,0.013523,0.002678,0.000431,0.020097
99127000,0.0324,0.013523,0.002678,0.000431,0.017864
99128000,0.0324,0.013523,0.002678,0.000431,0.021743
99129000,0.0324,0.013523,0.002678,0.000431,0.018922
99130000,0.0324,0.013523,0.002678,0.000431,0.016924
99131000,0.0324,0.013523,0.002678,0.000431,0.017042
99132000,0.0324,0.013523,0.002678,0.000431,0.016219
99133000,0.0324,0.013523,0.002678,0.000431,0.017512
99134000,0.0324,0.013523,0.002678,0.000431,0.016571
99135000,0.0324,0.013523,0.002678,0.000431,0.017042
99136000,0.0324,0.013523,0.002678,0.000431,0.016689
99137000,0.0324,0.013523,0.002678,0.000431,0.017277
99138000,0.0324,0.013523,0.002678,0.000431,0.017042
99139000,0.0324,0.013523,0.002678,0.000431,0.016336
99140000,0.0324,0.013523,0.002678,0.000431,0.017512
99141000,0.0324,0.013523,0.002678,0.000431,0.016454
99142000,0.0324,0.013523,0.002678,0.000431,0.019157
99143000,0.0324,0.013523,0.002678,0.000431,0.018452
99144000,0.0324,0.013523,0.002678,0.000431,0.013046
99145000,0.0324,0.013523,0.002678,0.000431,0.014456
99146000,0.0324,0.013523,0.002678,0.000431,0.013281
99147000,0.0324,0.013523,0.002678,0.000431,0.013516
99148000,0.0324,0.013523,0.002678,0.000431,0.013868
99149000,0.0324,0.013523,0.002678,0.000431,0.013633
99150000,0.0324,0.013523,0.002678,0.000431,0.013868
99151000,0.0324,0.013523,0.002678,0.000431,0.013516
99152000,0.0324,0.013523,0.002678,0.000431,0.015631
99153000,0.0324,0.013523,0.002678,0.000431,0.012811
99154000,0.0324,0.013523,0.002678,0.000431,0.013868
99155000,0.0324,0.013523,0.002678,0.000431,0.012340
99156000,0.0324,0.013523,0.002678,0.000431,0.011518
99157000,0.0324,0.013523,0.002678,0.000431,0.012340
99158000,0.0324,0.013523,0.002678,0.000431,0.011635
99159000,0.0324,0.013523,0.002678,0.000431,0.012223
99160000,0.0324,0.013523,0.002678,0.000431,0.012458
99161000,0.0324,0.013523,0.002678,0.000431,0.011400
99162000,0.0324,0.013523,0.002678,0.000431,0.011988
99163000,0.0324,0.013523,0.002678,0.000431,0.012811
99164000,0.0324,0.013523,0.002678,0.000431,0.011400
99165000,0.0324,0.013523,0.002678,0.000431,0.011870
99166000,0.0324,0.013523,0.002678,0.000431,0.012340
99167000,0.0324,0.013523,0.002678,0.000431,0.012576
99168000,0.0324,0.013523,0.002678,0.000431,0.011988
99169000,0.0324,0.013523,0.002678,0.000431,0.012340
99170000,0.0324,0.013523,0.002678,0.000431,0.013163
99171000,0.0324,0.013523,0.002678,0.000431,0.011283
99172000,0.0324,0.013523,0.002678,0.000431,0.010460
99173000,0.0324,0.013523,0.002678,0.000431,0.011165
99174000,0.0324,0.013523,0.002678,0.000431,0.010813
99175000,0.0324,0.013523,0.002678,0.000431,0.011048
99176000,0.0324,0.013523,0.002678,0.000431,0.010695
99177000,0.0324,0.013523,0.002678,0.000431,0.011165
99178000,0.0324,0.013523,0.002678,0.000431,0.012693
99179000,0.0324,0.013523,0.002678,0.000431,0.008932
99180000,0.0324,0.013523,0.002678,0.000431,0.009520
99181000,0.0324,0.013523,0.002678,0.000431,0.008462
99182000,0.0324,0.013523,0.002678,0.000431,0.008462
99183000,0.0324,0.013523,0.002678,0.000431,0.007757
99184000,0.0324,0.013523,0.002678,0.000431,0.011283
99185000,0.0324,0.013523,0.002678,0.000431,0.005994
99186000,0.0324,0.013523,0.002678,0.000431,0.005876
99187000,0.0324,0.013523,0.002678,0.000431,0.005641
99188000,0.0324,0.013523,0.002678,0.000431,0.005641
99189000,0.0324,0.013523,0.002678,0.000431,0.005876
99190000,0.0324,0.013523,0.002678,0.000431,0.005641
99191000,0.0324,0.013523,0.002678,0.000431,0.005876
99192000,0.0324,0.013523,0.002678,0.000431,0.005641
99193000,0.0324,0.013523,0.002678,0.000431,0.006111
99194000,0.0324,0.013523,0.002678,0.000431,0.005524
99195000,0.0324,0.013523,0.002678,0.000431,0.005876
99196000,0.0324,0.013523,0.002678,0.000431,0.005641
99197000,0.0324,0.013523,0.002678,0.000431,0.005994
99198000,0.0324,0.013523,0.002678,0.000431,0.005876
99199000,0.0324,0.013523,0.002678,0.000431,0.005524
99200000,0.0324,0.013523,0.002678,0.000431,0.005759
99201000,0.0324,0.013523,0.002678,0.000431,0.006347
99202000,0.0324,0.013523,0.002678,0.000431,0.007169
99203000,0.0324,0.013523,0.002678,0.000431,0.006229
99204000,0.0324,0.013523,0.002678,0.000431,0.005289
99205000,0.0324,0.013523,0.002678,0.000431,0.005171
99206000,0.0324,0.013523,0.002678,0.000431,0.004701
99207000,0.0324,0.013523,0.002678,0.000431,0.004936
99208000,0.0324,0.013523,0.002678,0.000431,0.005171
99209000,0.0324,0.013523,0.002678,0.000431,0.005994
99210000,0.0324,0.013523,0.002678,0.000431,0.005641
99211000,0.0324,0.013523,0.002678,0.000431,0.004231
99212000,0.0324,0.013523,0.002678,0.000431,0.003761
99213000,0.0324,0.013523,0.002678,0.000431,0.003408
99214000,0.0324,0.013523,0.002678,0.000431,0.003173
99215000,0.0324,0.013523,0.002678,0.000431,0.003408
99216000,0.0324,0.013523,0.002678,0.000431,0.005994
99217000,0.0324,0.013523,0.002678,0.000431,0.002351
99218000,0.0324,0.013523,0.002678,0.000431,0.002586
99219000,0.0324,0.013523,0.002678,0.000431,0.002351
99220000,0.0324,0.013523,0.002678,0.000431,0.002821
99221000,0.0324,0.013523,0.002678,0.000431,0.002233
99222000,0.0324,0.013523,0.002678,0.000431,0.002468
99223000,0.0324,0.013523,0.002678,0.000431,0.002586
99224000,0.0324,0.013523,0.002678,0.000431,0.002586
99225000,0.0324,0.013523,0.002678,0.000431,0.002351
99226000,0.0324,0.013523,0.002678,0.000431,0.002468
99227000,0.0324,0.013523,0.002678,0.000431,0.002703
99228000,0.0324,0.013523,0.002678,0.000431,0.002351
99229000,0.0324,0.013523,0.002678,0.000431,0.002351
99230000,0.0324,0.013523,0.002678,0.000431,0.005759
99231000,0.0324,0.013523,0.002678,0.000431,0.000823
99232000,0.0324,0.013523,0.002678,0.000431,0.000705
99233000,0.0324,0.013523,0.002678,0.000431,0.000940
99234000,0.0324,0.013523,0.002678,0.000431,0.000705
99235000,0.0324,0.013523,0.002678,0.000431,0.000940
99236000,0.0324,0.013523,0.002678,0.000431,0.000705
99237000,0.0324,0.013523,0.002678,0.000431,0.013986
99238000,0.0324,0.013523,0.002678,0.000431,0.572010
99239000,0.0324,0.013523,0.002678,0.000431,0.600687
99240000,0.0324,0.013523,0.002678,0.000431,0.133042
99241000,0.0324,0.013523,0.002678,0.000431,0.132572
99242000,0.0324,0.013523,0.002678,0.000431,0.519357
99243000,0.0324,0.013523,0.002678,0.000431,0.310627
99244000,0.0324,0.013523,0.002678,0.000431,0.243636
99245000,0.0324,0.013523,0.002678,0.000431,0.289707
99246000,0.0324,0.013523,0.002678,0.000431,0.139036
99247000,0.0324,0.013523,0.002678,0.000431,0.138448
99248000,0.0324,0.013523,0.002678,0.000431,0.128458
99249000,0.0324,0.013523,0.002678,0.000431,0.326258
99250000,0.0324,0.013523,0.002678,0.000431,0.290060
99251000,0.0324,0.013523,0.002678,0.000431,0.070634
99252000,0.0324,0.013523,0.002678,0.000431,0.058764
99253000,0.0324,0.013523,0.002678,0.000431,0.051477
99254000,0.0324,0.013523,0.002678,0.000431,0.046894
99255000,0.0324,0.013523,0.002678,0.000431,0.046306
99256000,0.0324,0.013523,0.002678,0.000431,0.031968
99257000,0.0324,0.013523,0.002678,0.000431,0.034436
99258000,0.0324,0.013523,0.002678,0.000431,0.034553
99259000,0.0324,0.013523,0.002678,0.000431,0.031262
99260000,0.0324,0.013523,0.002678,0.000431,0.035141
99261000,0.0324,0.013523,0.002678,0.000431,0.026914
99262000,0.0324,0.013523,0.002678,0.000431,0.030087
99263000,0.0324,0.013523,0.002678,0.000431,0.026914
99264000,0.0324,0.013523,0.002678,0.000431,0.024328
99265000,0.0324,0.013523,0.002678,0.000431,0.025034
99266000,0.0324,0.013523,0.002678,0.000431,0.026091
99267000,0.0324,0.013523,0.002678,0.000431,0.022800
99268000,0.0324,0.013523,0.002678,0.000431,0.025974
99269000,0.0324,0.013523,0.002678,0.000431,0.024211
99270000,0.0324,0.013523,0.002678,0.000431,0.022565
99271000,0.0324,0.013523,0.002678,0.000431,0.028559
99272000,0.0324,0.013523,0.002678,0.000431,0.020802
99273000,0.0324,0.013523,0.002678,0.000431,0.021625
99274000,0.0324,0.013523,0.002678,0.000431,0.020685
99275000,0.0324,0.013523,0.002678,0.000431,0.019627
99276000,0.0324,0.013523,0.002678,0.000431,0.018452
99277000,0.0324,0.013523,0.002678,0.000431,0.020332
99278000,0.0324,0.013523,0.002678,0.000431,0.016807
99279000,0.0324,0.013523,0.002678,0.000431,0.015514
99280000,0.0324,0.013523,0.002678,0.000431,0.013163
99281000,0.0324,0.013523,0.002678,0.000431,0.012811
99282000,0.0324,0.013523,0.002678,0.000431,0.013633
99283000,0.0324,0.013523,0.002678,0.000431,0.014573
99284000,0.0324,0.013523,0.002678,0.000431,0.012928
99285000,0.0324,0.013523,0.002678,0.000431,0.013751
99286000,0.0324,0.013523,0.002678,0.000431,0.012105
99287000,0.0324,0.013523,0.002678,0.000431,0.010578
99288000,0.0324,0.013523,0.002678,0.000431,0.011283
99289000,0.0324,0.013523,0.002678,0.000431,0.011635
99290000,0.0324,0.013523,0.002678,0.000431,0.012223
99291000,0.0324,0.013523,0.002678,0.000431,0.010225
99292000,0.0324,0.013523,0.002678,0.000431,0.011283
99293000,0.0324,0.013523,0.002678,0.000431,0.009872
99294000,0.0324,0.013523,0.002678,0.000431,0.010107
99295000,0.0324,0.013523,0.002678,0.000431,0.010225
99296000,0.0324,0.013523,0.002678,0.000431,0.010107
99297000,0.0324,0.013523,0.002678,0.000431,0.010695
99298000,0.0324,0.013523,0.002678,0.000431,0.009167
99299000,0.0324,0.013523,0.002678,0.000431,0.011048
99300000,0.0324,0.013523,0.002678,0.000431,0.010342
99301000,0.0324,0.013523,0.002678,0.000431,0.009872
99302000,0.0324,0.013523,0.002678,0.000431,0.010460
99303000,0.0324,0.013523,0.002678,0.000431,0.009050
99304000,0.0324,0.013523,0.002678,0.000431,0.010930
99305000,0.0324,0.013523,0.002678,0.000431,0.010107
99306000,0.0324,0.013523,0.002678,0.000431,0.008462
99307000,0.0324,0.013523,0.002678,0.000431,0.009167
99308000,0.0324,0.013523,0.002678,0.000431,0.008580
99309000,0.0324,0.013523,0.002678,0.000431,0.008932
99310000,0.0324,0.013523,0.002678,0.000431,0.008932
99311000,0.0324,0.013523,0.002678,0.000431,0.009050
99312000,0.0324,0.013523,0.002678,0.000431,0.008815
99313000,0.0324,0.013523,0.002678,0.000431,0.008697
99314000,0.0324,0.013523,0.002678,0.000431,0.008932
99315000,0.0324,0.013523,0.002678,0.000431,0.008697
99316000,0.0324,0.013523,0.002678,0.000431,0.009050
99317000,0.0324,0.013523,0.002678,0.000431,0.008580
99318000,0.0324,0.013523,0.002678,0.000431,0.008697
99319000,0.0324,0.013523,0.002678,0.000431,0.009520
99320000,0.0324,0.013523,0.002678,0.000431,0.008345
99321000,0.0324,0.013523,0.002678,0.000431,0.009167
99322000,0.0324,0.013523,0.002678,0.000431,0.008932
99323000,0.0324,0.013523,0.002678,0.000431,0.008580
99324000,0.0324,0.013523,0.002678,0.000431,0.009050
99325000,0.0324,0.013523,0.002678,0.000431,0.009285
99326000,0.0324,0.013523,0.002678,0.000431,0.007992
99327000,0.0324,0.013523,0.002678,0.000431,0.009755
99328000,0.0324,0.013523,0.002678,0.000431,0.010813
99329000,0.0324,0.013523,0.002678,0.000431,0.007404
99330000,0.0324,0.013523,0.002678,0.000431,0.007874
99331000,0.0324,0.013523,0.002678,0.000431,0.006582
99332000,0.0324,0.013523,0.002678,0.000431,0.007404
99333000,0.0324,0.013523,0.002678,0.000431,0.007404
99334000,0.0324,0.013523,0.002678,0.000431,0.007052
99335000,0.0324,0.013523,0.002678,0.000431,0.006699
99336000,0.0324,0.013523,0.002678,0.000431,0.006229
99337000,0.0324,0.013523,0.002678,0.000431,0.007287
99338000,0.0324,0.013523,0.002678,0.000431,0.006229
99339000,0.0324,0.013523,0.002678,0.000431,0.006934
99340000,0.0324,0.013523,0.002678,0.000431,0.006582
99341000,0.0324,0.013523,0.002678,0.000431,0.006582
99342000,0.0324,0.013523,0.002678,0.000431,0.006817
99343000,0.0324,0.013523,0.002678,0.000431,0.006229
99344000,0.0324,0.013523,0.002678,0.000431,0.006817
99345000,0.0324,0.013523,0.002678,0.000431,0.006582
99346000,0.0324,0.013523,0.002678,0.000431,0.006699
99347000,0.0324,0.013523,0.002678,0.000431,0.005994
99348000,0.0324,0.013523,0.002678,0.000431,0.007052
99349000,0.0324,0.013523,0.002678,0.000431,0.005759
99350000,0.0324,0.013523,0.002678,0.000431,0.006934
99351000,0.0324,0.013523,0.002678,0.000431,0.006464
99352000,0.0324,0.013523,0.002678,0.000431,0.006347
99353000,0.0324,0.013523,0.002678,0.000431,0.006699
99354000,0.0324,0.013523,0.002678,0.000431,0.005994
99355000,0.0324,0.013523,0.002678,0.000431,0.006934
99356000,0.0324,0.013523,0.002678,0.000431,0.006347
99357000,0.0324,0.013523,0.002678,0.000431,0.006347
99358000,0.0324,0.013523,0.002678,0.000431,0.006582
99359000,0.0324,0.013523,0.002678,0.000431,0.006347
99360000,0.0324,0.013523,0.002678,0.000431,0.006934
99361000,0.0324,0.013523,0.002678,0.000431,0.005876
99362000,0.0324,0.013523,0.002678,0.000431,0.006582
99363000,0.0324,0.013523,0.002678,0.000431,0.006817
99364000,0.0324,0.013523,0.002678,0.000431,0.005994
99365000,0.0324,0.013523,0.002678,0.000431,0.006464
99366000,0.0324,0.013523,0.002678,0.000431,0.006582
99367000,0.0324,0.013523,0.002678,0.000431,0.006229
99368000,0.0324,0.013523,0.002678,0.000431,0.006817
99369000,0.0324,0.013523,0.002678,0.000431,0.006111
99370000,0.0324,0.013523,0.002678,0.000431,0.006582
99371000,0.0324,0.013523,0.002678,0.000431,0.006582
99372000,0.0324,0.013523,0.002678,0.000431,0.006347
99373000,0.0324,0.013523,0.002678,0.000431,0.006582
99374000,0.0324,0.013523,0.002678,0.000431,0.006111
99375000,0.0324,0.013523,0.002678,0.000431,0.006817
99376000,0.0324,0.013523,0.002678,0.000431,0.005759
99377000,0.0324,0.013523,0.002678,0.000431,0.006347
99378000,0.0324,0.013523,0.002678,0.000431,0.006582
99379000,0.0324,0.013523,0.002678,0.000431,0.006347
99380000,0.0324,0.013523,0.002678,0.000431,0.006699
99381000,0.0324,0.013523,0.002678,0.000431,0.006464
99382000,0.0324,0.013523,0.002678,0.000431,0.006229
99383000,0.0324,0.013523,0.002678,0.000431,0.006699
99384000,0.0324,0.013523,0.002678,0.000431,0.005994
99385000,0.0324,0.013523,0.002678,0.000431,0.006699
99386000,0.0324,0.013523,0.002678,0.000431,0.007874
99387000,0.0324,0.013523,0.002678,0.000431,0.004936
99388000,0.0324,0.013523,0.002678,0.000431,0.004701
99389000,0.0324,0.013523,0.002678,0.000431,0.004936
99390000,0.0324,0.013523,0.002678,0.000431,0.005054
99391000,0.0324,0.013523,0.002678,0.000431,0.004936
99392000,0.0324,0.013523,0.002678,0.000431,0.004584
99393000,0.0324,0.013523,0.002678,0.000431,0.005171
99394000,0.0324,0.013523,0.002678,0.000431,0.004466
99395000,0.0324,0.013523,0.002678,0.000431,0.004936
99396000,0.0324,0.013523,0.002678,0.000431,0.005406
99397000,0.0324,0.013523,0.002678,0.000431,0.004231
99398000,0.0324,0.013523,0.002678,0.000431,0.005406
99399000,0.0324,0.013523,0.002678,0.000431,0.011400
99400000,0.0324,0.013523,0.002678,0.000431,0.001998
99401000,0.0324,0.013523,0.002678,0.000431,0.001763
99402000,0.0324,0.013523,0.002678,0.000431,0.001645
99403000,0.0324,0.013523,0.002678,0.000431,0.001645
99404000,0.0324,0.013523,0.002678,0.000431,0.001645
99405000,0.0324,0.013523,0.002678,0.000431,0.001880
99406000,0.0324,0.013523,0.002678,0.000431,0.001763
99407000,0.0324,0.013523,0.002678,0.000431,0.001528
99408000,0.0324,0.013523,0.002678,0.000431,0.001880
99409000,0.0324,0.013523,0.002678,0.000431,0.001528
99410000,0.0324,0.013523,0.002678,0.000431,0.001880
99411000,0.0324,0.013523,0.002678,0.000431,0.001763
99412000,0.0324,0.013523,0.002678,0.000431,0.001645
99413000,0.0324,0.013523,0.002678,0.000431,0.001763
99414000,0.0324,0.013523,0.002678,0.000431,0.001528
99415000,0.0324,0.013523,0.002678,0.000431,0.001880
99416000,0.0324,0.013523,0.002678,0.000431,0.001763
99417000,0.0324,0.013523,0.002678,0.000431,0.001528
99418000,0.0324,0.013523,0.002678,0.000431,0.001763
99419000,0.0324,0.013523,0.002678,0.000431,0.001763
99420000,0.0324,0.013523,0.002678,0.000431,0.001880
99421000,0.0324,0.013523,0.002678,0.000431,0.001528
99422000,0.0324,0.013523,0.002678,0.000431,0.001880
99423000,0.0324,0.013523,0.002678,0.000431,0.001528
99424000,0.0324,0.013523,0.002678,0.000431,0.001880
99425000,0.0324,0.013523,0.002678,0.000431,0.001645
99426000,0.0324,0.013523,0.002678,0.000431,0.001645
99427000,0.0324,0.013523,0.002678,0.000431,0.001645
99428000,0.0324,0.013523,0.002678,0.000431,0.001880
99429000,0.0324,0.013523,0.002678,0.000431,0.001763
99430000,0.0324,0.013523,0.002678,0.000431,0.001528
99431000,0.0324,0.013523,0.002678,0.000431,0.001880
99432000,0.0324,0.013523,0.002678,0.000431,0.001645
99433000,0.0324,0.013523,0.002678,0.000431,0.001763
99434000,0.0324,0.013523,0.002678,0.000431,0.001645
99435000,0.0324,0.013523,0.002678,0.000431,0.001763
99436000,0.0324,0.013523,0.002678,0.000431,0.001763
99437000,0.0324,0.013523,0.002678,0.000431,0.001645
99438000,0.0324,0.013523,0.002678,0.000431,0.001763
99439000,0.0324,0.013523,0.002678,0.000431,0.001763
99440000,0.0324,0.013523,0.002678,0.000431,0.001645
99441000,0.0324,0.013523,0.002678,0.000431,0.002586
99442000,0.0324,0.013523,0.002678,0.000431,0.001880
99443000,0.0324,0.013523,0.002678,0.000431,0.000823
99444000,0.0324,0.013523,0.002678,0.000431,0.000823
99445000,0.0324,0.013523,0.002678,0.000431,0.000940
99446000,0.0324,0.013523,0.002678,0.000431,0.000823
99447000,0.0324,0.013523,0.002678,0.000431,0.000823
99448000,0.0324,0.013523,0.002678,0.000431,0.000823
99449000,0.0324,0.013523,0.002678,0.000431,0.000823
99450000,0.0324,0.013523,0.002678,0.000431,0.000823
99451000,0.0324,0.013523,0.002678,0.000431,0.000823
99452000,0.0324,0.013523,0.002678,0.000431,0.000823
99453000,0.0324,0.013523,0.002678,0.000431,0.000823
99454000,0.0324,0.013523,0.002678,0.000431,0.000940
99455000,0.0324,0.013523,0.002678,0.000431,0.000705
99456000,0.0324,0.013523,0.002678,0.000431,0.000940
99457000,0.0324,0.013523,0.002678,0.000431,0.000705
99458000,0.0324,0.013523,0.002678,0.000431,0.000940
99459000,0.0324,0.013523,0.002678,0.000431,0.000940
99460000,0.0324,0.013523,0.002678,0.000431,0.000705
99461000,0.0324,0.013523,0.002678,0.000431,0.000940
99462000,0.0324,0.013523,0.002678,0.000431,0.000705
99463000,0.0324,0.013523,0.002678,0.000431,0.000940
99464000,0.0324,0.013523,0.002678,0.000431,0.000823
99465000,0.0324,0.013523,0.002678,0.000431,0.000823
99466000,0.0324,0.013523,0.002678,0.000431,0.000823
99467000,0.0324,0.013523,0.002678,0.000431,0.000823
99468000,0.0324,0.013523,0.002678,0.000431,0.000940
99469000,0.0324,0.013523,0.002678,0.000431,0.000705
99470000,0.0324,0.013523,0.002678,0.000431,0.000940
99471000,0.0324,0.013523,0.002678,0.000431,0.000823
99472000,0.0324,0.013523,0.002678,0.000431,0.000823
99473000,0.0324,0.013523,0.002678,0.000431,0.000823
99474000,0.0324,0.013523,0.002678,0.000431,0.000823
99475000,0.0324,0.013523,0.002678,0.000431,0.073220
99476000,0.0324,0.013523,0.002678,0.000431,0.548857
99477000,0.0324,0.013523,0.002678,0.000431,0.554733
99478000,0.0324,0.013523,0.002678,0.000431,0.133042
99479000,0.0324,0.013523,0.002678,0.000431,0.132102
99480000,0.0324,0.013523,0.002678,0.000431,0.560139
99481000,0.0324,0.013523,0.002678,0.000431,0.226007
99482000,0.0324,0.013523,0.002678,0.000431,0.280187
99483000,0.0324,0.013523,0.002678,0.000431,0.316738
99484000,0.0324,0.013523,0.002678,0.000431,0.148203
99485000,0.0324,0.013523,0.002678,0.000431,0.150554
99486000,0.0324,0.013523,0.002678,0.000431,0.099311
99487000,0.0324,0.013523,0.002678,0.000431,0.431563
99488000,0.0324,0.013523,0.002678,0.000431,0.138448
99489000,0.0324,0.013523,0.002678,0.000431,0.037139
99490000,0.0324,0.013523,0.002678,0.000431,0.026326
99491000,0.0324,0.013523,0.002678,0.000431,0.015161
99492000,0.0324,0.013523,0.002678,0.000431,0.020450
99493000,0.0324,0.013523,0.002678,0.000431,0.014691
99494000,0.0324,0.013523,0.002678,0.000431,0.010107
99495000,0.0324,0.013523,0.002678,0.000431,0.009872
99496000,0.0324,0.013523,0.002678,0.000431,0.013398
99497000,0.0324,0.013523,0.002678,0.000431,0.008345
99498000,0.0324,0.013523,0.002678,0.000431,0.008227
99499000,0.0324,0.013523,0.002678,0.000431,0.007639
99500000,0.0324,0.013523,0.002678,0.000431,0.008462
99501000,0.0324,0.013523,0.002678,0.000431,0.006464
99502000,0.0324,0.013523,0.002678,0.000431,0.006464
99503000,0.0324,0.013523,0.002678,0.000431,0.005876
99504000,0.0324,0.013523,0.002678,0.000431,0.005876
99505000,0.0324,0.013523,0.002678,0.000431,0.006699
99506000,0.0324,0.013523,0.002678,0.000431,0.005641
99507000,0.0324,0.013523,0.002678,0.000431,0.005289
99508000,0.0324,0.013523,0.002678,0.000431,0.004819
99509000,0.0324,0.013523,0.002678,0.000431,0.005289
99510000,0.0324,0.013523,0.002678,0.000431,0.005054
99511000,0.0324,0.013523,0.002678,0.000431,0.005054
99512000,0.0324,0.013523,0.002678,0.000431,0.005054
99513000,0.0324,0.013523,0.002678,0.000431,0.005171
99514000,0.0324,0.013523,0.002678,0.000431,0.004936
99515000,0.0324,0.013523,0.002678,0.000431,0.005171
99516000,0.0324,0.013523,0.002678,0.000431,0.004936
99517000,0.0324,0.013523,0.002678,0.000431,0.006699
99518000,0.0324,0.013523,0.002678,0.000431,0.004349
99519000,0.0324,0.013523,0.002678,0.000431,0.004113
99520000,0.0324,0.013523,0.002678,0.000431,0.004231
99521000,0.0324,0.013523,0.002678,0.000431,0.004349
99522000,0.0324,0.013523,0.002678,0.000431,0.004113
99523000,0.0324,0.013523,0.002678,0.000431,0.004466
99524000,0.0324,0.013523,0.002678,0.000431,0.004113
99525000,0.0324,0.013523,0.002678,0.000431,0.004349
99526000,0.0324,0.013523,0.002678,0.000431,0.003996
99527000,0.0324,0.013523,0.002678,0.000431,0.004349
99528000,0.0324,0.013523,0.002678,0.000431,0.004349
99529000,0.0324,0.013523,0.002678,0.000431,0.004231
99530000,0.0324,0.013523,0.002678,0.000431,0.004113
99531000,0.0324,0.013523,0.002678,0.000431,0.004113
99532000,0.0324,0.013523,0.002678,0.000431,0.004584
99533000,0.0324,0.013523,0.002678,0.000431,0.004113
99534000,0.0324,0.013523,0.002678,0.000431,0.004349
99535000,0.0324,0.013523,0.002678,0.000431,0.004349
99536000,0.0324,0.013523,0.002678,0.000431,0.003996
99537000,0.0324,0.013523,0.002678,0.000431,0.004466
99538000,0.0324,0.013523,0.002678,0.000431,0.003996
99539000,0.0324,0.013523,0.002678,0.000431,0.004466
99540000,0.0324,0.013523,0.002678,0.000431,0.005524
99541000,0.0324,0.013523,0.002678,0.000431,0.003408
99542000,0.0324,0.013523,0.002678,0.000431,0.003291
99543000,0.0324,0.013523,0.002678,0.000431,0.003526
99544000,0.0324,0.013523,0.002678,0.000431,0.003526
99545000,0.0324,0.013523,0.002678,0.000431,0.003056
99546000,0.0324,0.013523,0.002678,0.000431,0.003526
99547000,0.0324,0.013523,0.002678,0.000431,0.003526
99548000,0.0324,0.013523,0.002678,0.000431,0.003408
99549000,0.0324,0.013523,0.002678,0.000431,0.003173
99550000,0.0324,0.013523,0.002678,0.000431,0.004701
99551000,0.0324,0.013523,0.002678,0.000431,0.003996
99552000,0.0324,0.013523,0.002678,0.000431,0.001763
99553000,0.0324,0.013523,0.002678,0.000431,0.002703
99554000,0.0324,0.013523,0.002678,0.000431,0.002351
99555000,0.0324,0.013523,0.002678,0.000431,0.000940
99556000,0.0324,0.013523,0.002678,0.000431,0.000823
99557000,0.0324,0.013523,0.002678,0.000431,0.000823
99558000,0.0324,0.013523,0.002678,0.000431,0.000940
99559000,0.0324,0.013523,0.002678,0.000431,0.000823
99560000,0.0324,0.013523,0.002678,0.000431,0.000940
99561000,0.0324,0.013523,0.002678,0.000431,0.000823
99562000,0.0324,0.013523,0.002678,0.000431,0.000940
99563000,0.0324,0.013523,0.002678,0.000431,0.001763
99564000,0.0324,0.013523,0.002678,0.000431,0.280775
99565000,0.0324,0.013523,0.002678,0.000431,0.631244
99566000,0.0324,0.013523,0.002678,0.000431,0.253156
99567000,0.0324,0.013523,0.002678,0.000431,0.131161
99568000,0.0324,0.013523,0.002678,0.000431,0.155020
99569000,0.0324,0.013523,0.002678,0.000431,0.662389
99570000,0.0324,0.013523,0.002678,0.000431,0.267729
99571000,0.0324,0.013523,0.002678,0.000431,0.236232
99572000,0.0324,0.013523,0.002678,0.000431,0.212021
99573000,0.0324,0.013523,0.002678,0.000431,0.135980
99574000,0.0324,0.013523,0.002678,0.000431,0.170298
99575000,0.0324,0.013523,0.002678,0.000431,0.137743
99576000,0.0324,0.013523,0.002678,0.000431,0.463061
99577000,0.0324,0.013523,0.002678,0.000431,0.099781
99578000,0.0324,0.013523,0.002678,0.000431,0.070047
99579000,0.0324,0.013523,0.002678,0.000431,0.057706
99580000,0.0324,0.013523,0.002678,0.000431,0.045248
99581000,0.0324,0.013523,0.002678,0.000431,0.047599
99582000,0.0324,0.013523,0.002678,0.000431,0.028207
99583000,0.0324,0.013523,0.002678,0.000431,0.026914
99584000,0.0324,0.013523,0.002678,0.000431,0.025269
99585000,0.0324,0.013523,0.002678,0.000431,0.017512
99586000,0.0324,0.013523,0.002678,0.000431,0.016807
99587000,0.0324,0.013523,0.002678,0.000431,0.017042
99588000,0.0324,0.013523,0.002678,0.000431,0.018922
99589000,0.0324,0.013523,0.002678,0.000431,0.012811
99590000,0.0324,0.013523,0.002678,0.000431,0.014103
99591000,0.0324,0.013523,0.002678,0.000431,0.017512
99592000,0.0324,0.013523,0.002678,0.000431,0.011635
99593000,0.0324,0.013523,0.002678,0.000431,0.012223
99594000,0.0324,0.013523,0.002678,0.000431,0.011048
99595000,0.0324,0.013523,0.002678,0.000431,0.011518
99596000,0.0324,0.013523,0.002678,0.000431,0.011165
99597000,0.0324,0.013523,0.002678,0.000431,0.014338
99598000,0.0324,0.013523,0.002678,0.000431,0.013281
99599000,0.0324,0.013523,0.002678,0.000431,0.006347
99600000,0.0324,0.013523,0.002678,0.000431,0.005171
99601000,0.0324,0.013523,0.002678,0.000431,0.006111
99602000,0.0324,0.013523,0.002678,0.000431,0.005524
99603000,0.0324,0.013523,0.002678,0.000431,0.005994
99604000,0.0324,0.013523,0.002678,0.000431,0.009637
99605000,0.0324,0.013523,0.002678,0.000431,0.004584
99606000,0.0324,0.013523,0.002678,0.000431,0.005054
99607000,0.0324,0.013523,0.002678,0.000431,0.005054
99608000,0.0324,0.013523,0.002678,0.000431,0.004819
99609000,0.0324,0.013523,0.002678,0.000431,0.004936
99610000,0.0324,0.013523,0.002678,0.000431,0.004819
99611000,0.0324,0.013523,0.002678,0.000431,0.004936
99612000,0.0324,0.013523,0.002678,0.000431,0.007287
99613000,0.0324,0.013523,0.002678,0.000431,0.004113
99614000,0.0324,0.013523,0.002678,0.000431,0.005759
99615000,0.0324,0.013523,0.002678,0.000431,0.002821
99616000,0.0324,0.013523,0.002678,0.000431,0.003526
99617000,0.0324,0.013523,0.002678,0.000431,0.003173
99618000,0.0324,0.013523,0.002678,0.000431,0.005759
99619000,0.0324,0.013523,0.002678,0.000431,0.001763
99620000,0.0324,0.013523,0.002678,0.000431,0.001528
99621000,0.0324,0.013523,0.002678,0.000431,0.001763
99622000,0.0324,0.013523,0.002678,0.000431,0.001763
99623000,0.0324,0.013523,0.002678,0.000431,0.001528
99624000,0.0324,0.013523,0.002678,0.000431,0.001645
99625000,0.0324,0.013523,0.002678,0.000431,0.001763
99626000,0.0324,0.013523,0.002678,0.000431,0.001645
99627000,0.0324,0.013523,0.002678,0.000431,0.001645
99628000,0.0324,0.013523,0.002678,0.000431,0.001763
99629000,0.0324,0.013523,0.002678,0.000431,0.001410
99630000,0.0324,0.013523,0.002678,0.000431,0.001763
99631000,0.0324,0.013523,0.002678,0.000431,0.001880
99632000,0.0324,0.013523,0.002678,0.000431,0.001528
99633000,0.0324,0.013523,0.002678,0.000431,0.001763
99634000,0.0324,0.013523,0.002678,0.000431,0.001528
99635000,0.0324,0.013523,0.002678,0.000431,0.001645
99636000,0.0324,0.013523,0.002678,0.000431,0.004819
99637000,0.0324,0.013523,0.002678,0.000431,0.000940
99638000,0.0324,0.013523,0.002678,0.000431,0.000705
99639000,0.0324,0.013523,0.002678,0.000431,0.000940
99640000,0.0324,0.013523,0.002678,0.000431,0.000705
99641000,0.0324,0.013523,0.002678,0.000431,0.000940
99642000,0.0324,0.013523,0.002678,0.000431,0.000940
99643000,0.0324,0.013523,0.002678,0.000431,0.000705
99644000,0.0324,0.013523,0.002678,0.000431,0.000940
99645000,0.0324,0.013523,0.002678,0.000431,0.000705
99646000,0.0324,0.013523,0.002678,0.000431,0.000940
99647000,0.0324,0.013523,0.002678,0.000431,0.000823
99648000,0.0324,0.013523,0.002678,0.000431,0.000823
99649000,0.0324,0.013523,0.002678,0.000431,0.000823
99650000,0.0324,0.013523,0.002678,0.000431,0.000823
99651000,0.0324,0.013523,0.002678,0.000431,0.000940
99652000,0.0324,0.013523,0.002678,0.000431,0.000705
99653000,0.0324,0.013523,0.002678,0.000431,0.000940
99654000,0.0324,0.013523,0.002678,0.000431,0.000823
99655000,0.0324,0.013523,0.002678,0.000431,0.000823
99656000,0.0324,0.013523,0.002678,0.000431,0.000823
99657000,0.0324,0.013523,0.002678,0.000431,0.000823
99658000,0.0324,0.013523,0.002678,0.000431,0.013281
99659000,0.0324,0.013523,0.002678,0.000431,0.511130
99660000,0.0324,0.013523,0.002678,0.000431,0.618316
99661000,0.0324,0.013523,0.002678,0.000431,0.134452
99662000,0.0324,0.013523,0.002678,0.000431,0.131632
99663000,0.0324,0.013523,0.002678,0.000431,0.309099
99664000,0.0324,0.013523,0.002678,0.000431,0.445314
99665000,0.0324,0.013523,0.002678,0.000431,0.239170
99666000,0.0324,0.013523,0.002678,0.000431,0.315916
99667000,0.0324,0.013523,0.002678,0.000431,0.193334
99668000,0.0324,0.013523,0.002678,0.000431,0.144090
99669000,0.0324,0.013523,0.002678,0.000431,0.147968
99670000,0.0324,0.013523,0.002678,0.000431,0.207790
99671000,0.0324,0.013523,0.002678,0.000431,0.382084
99672000,0.0324,0.013523,0.002678,0.000431,0.049009
99673000,0.0324,0.013523,0.002678,0.000431,0.041017
99674000,0.0324,0.013523,0.002678,0.000431,0.034318
99675000,0.0324,0.013523,0.002678,0.000431,0.032790
99676000,0.0324,0.013523,0.002678,0.000431,0.026326
99677000,0.0324,0.013523,0.002678,0.000431,0.021860
99678000,0.0324,0.013523,0.002678,0.000431,0.019980
99679000,0.0324,0.013523,0.002678,0.000431,0.025621
99680000,0.0324,0.013523,0.002678,0.000431,0.020685
99681000,0.0324,0.013523,0.002678,0.000431,0.015984
99682000,0.0324,0.013523,0.002678,0.000431,0.015044
99683000,0.0324,0.013523,0.002678,0.000431,0.014456
99684000,0.0324,0.013523,0.002678,0.000431,0.014103
99685000,0.0324,0.013523,0.002678,0.000431,0.016219
99686000,0.0324,0.013523,0.002678,0.000431,0.011635
99687000,0.0324,0.013523,0.002678,0.000431,0.012693
99688000,0.0324,0.013523,0.002678,0.000431,0.010695
99689000,0.0324,0.013523,0.002678,0.000431,0.011518
99690000,0.0324,0.013523,0.002678,0.000431,0.014103
99691000,0.0324,0.013523,0.002678,0.000431,0.011988
99692000,0.0324,0.013523,0.002678,0.000431,0.010225
99693000,0.0324,0.013523,0.002678,0.000431,0.008580
99694000,0.0324,0.013523,0.002678,0.000431,0.008462
99695000,0.0324,0.013523,0.002678,0.000431,0.008462
99696000,0.0324,0.013523,0.002678,0.000431,0.007992
99697000,0.0324,0.013523,0.002678,0.000431,0.008697
99698000,0.0324,0.013523,0.002678,0.000431,0.007639
99699000,0.0324,0.013523,0.002678,0.000431,0.008697
99700000,0.0324,0.013523,0.002678,0.000431,0.007874
99701000,0.0324,0.013523,0.002678,0.000431,0.008697
99702000,0.0324,0.013523,0.002678,0.000431,0.007757
99703000,0.0324,0.013523,0.002678,0.000431,0.008462
99704000,0.0324,0.013523,0.002678,0.000431,0.009402
99705000,0.0324,0.013523,0.002678,0.000431,0.010342
99706000,0.0324,0.013523,0.002678,0.000431,0.006111
99707000,0.0324,0.013523,0.002678,0.000431,0.006817
99708000,0.0324,0.013523,0.002678,0.000431,0.006347
99709000,0.0324,0.013523,0.002678,0.000431,0.006464
99710000,0.0324,0.013523,0.002678,0.000431,0.006699
99711000,0.0324,0.013523,0.002678,0.000431,0.006582
99712000,0.0324,0.013523,0.002678,0.000431,0.006229
99713000,0.0324,0.013523,0.002678,0.000431,0.006699
99714000,0.0324,0.013523,0.002678,0.000431,0.006347
99715000,0.0324,0.013523,0.002678,0.000431,0.007169
99716000,0.0324,0.013523,0.002678,0.000431,0.005876
99717000,0.0324,0.013523,0.002678,0.000431,0.006934
99718000,0.0324,0.013523,0.002678,0.000431,0.006464
99719000,0.0324,0.013523,0.002678,0.000431,0.006582
99720000,0.0324,0.013523,0.002678,0.000431,0.006582
99721000,0.0324,0.013523,0.002678,0.000431,0.006464
99722000,0.0324,0.013523,0.002678,0.000431,0.006229
99723000,0.0324,0.013523,0.002678,0.000431,0.006934
99724000,0.0324,0.013523,0.002678,0.000431,0.006229
99725000,0.0324,0.013523,0.002678,0.000431,0.006582
99726000,0.0324,0.013523,0.002678,0.000431,0.006347
99727000,0.0324,0.013523,0.002678,0.000431,0.006582
99728000,0.0324,0.013523,0.002678,0.000431,0.006699
99729000,0.0324,0.013523,0.002678,0.000431,0.006111
99730000,0.0324,0.013523,0.002678,0.000431,0.007052
99731000,0.0324,0.013523,0.002678,0.000431,0.005994
99732000,0.0324,0.013523,0.002678,0.000431,0.006699
99733000,0.0324,0.013523,0.002678,0.000431,0.006582
99734000,0.0324,0.013523,0.002678,0.000431,0.006464
99735000,0.0324,0.013523,0.002678,0.000431,0.006582
99736000,0.0324,0.013523,0.002678,0.000431,0.006111
99737000,0.0324,0.013523,0.002678,0.000431,0.007052
99738000,0.0324,0.013523,0.002678,0.000431,0.006229
99739000,0.0324,0.013523,0.002678,0.000431,0.006229
99740000,0.0324,0.013523,0.002678,0.000431,0.006817
99741000,0.0324,0.013523,0.002678,0.000431,0.006582
99742000,0.0324,0.013523,0.002678,0.000431,0.006229
99743000,0.0324,0.013523,0.002678,0.000431,0.006582
99744000,0.0324,0.013523,0.002678,0.000431,0.006464
99745000,0.0324,0.013523,0.002678,0.000431,0.006817
99746000,0.0324,0.013523,0.002678,0.000431,0.006229
99747000,0.0324,0.013523,0.002678,0.000431,0.006111
99748000,0.0324,0.013523,0.002678,0.000431,0.006582
99749000,0.0324,0.013523,0.002678,0.000431,0.005524
99750000,0.0324,0.013523,0.002678,0.000431,0.005876
99751000,0.0324,0.013523,0.002678,0.000431,0.005524
99752000,0.0324,0.013523,0.002678,0.000431,0.006229
99753000,0.0324,0.013523,0.002678,0.000431,0.006111
99754000,0.0324,0.013523,0.002678,0.000431,0.005524
99755000,0.0324,0.013523,0.002678,0.000431,0.006229
99756000,0.0324,0.013523,0.002678,0.000431,0.005641
99757000,0.0324,0.013523,0.002678,0.000431,0.006111
99758000,0.0324,0.013523,0.002678,0.000431,0.005759
99759000,0.0324,0.013523,0.002678,0.000431,0.005876
99760000,0.0324,0.013523,0.002678,0.000431,0.006229
99761000,0.0324,0.013523,0.002678,0.000431,0.005759
99762000,0.0324,0.013523,0.002678,0.000431,0.005406
99763000,0.0324,0.013523,0.002678,0.000431,0.006229
99764000,0.0324,0.013523,0.002678,0.000431,0.005876
99765000,0.0324,0.013523,0.002678,0.000431,0.005759
99766000,0.0324,0.013523,0.002678,0.000431,0.006111
99767000,0.0324,0.013523,0.002678,0.000431,0.005524
99768000,0.0324,0.013523,0.002678,0.000431,0.006347
99769000,0.0324,0.013523,0.002678,0.000431,0.005406
99770000,0.0324,0.013523,0.002678,0.000431,0.005994
99771000,0.0324,0.013523,0.002678,0.000431,0.006347
99772000,0.0324,0.013523,0.002678,0.000431,0.005641
99773000,0.0324,0.013523,0.002678,0.000431,0.005994
99774000,0.0324,0.013523,0.002678,0.000431,0.005641
99775000,0.0324,0.013523,0.002678,0.000431,0.006229
99776000,0.0324,0.013523,0.002678,0.000431,0.005876
99777000,0.0324,0.013523,0.002678,0.000431,0.005524
99778000,0.0324,0.013523,0.002678,0.000431,0.006229
99779000,0.0324,0.013523,0.002678,0.000431,0.005759
99780000,0.0324,0.013523,0.002678,0.000431,0.005994
99781000,0.0324,0.013523,0.002678,0.000431,0.005524
99782000,0.0324,0.013523,0.002678,0.000431,0.005876
99783000,0.0324,0.013523,0.002678,0.000431,0.006111
99784000,0.0324,0.013523,0.002678,0.000431,0.005641
99785000,0.0324,0.013523,0.002678,0.000431,0.005994
99786000,0.0324,0.013523,0.002678,0.000431,0.006111
99787000,0.0324,0.013523,0.002678,0.000431,0.005524
99788000,0.0324,0.013523,0.002678,0.000431,0.006229
99789000,0.0324,0.013523,0.002678,0.000431,0.005641
99790000,0.0324,0.013523,0.002678,0.000431,0.006111
99791000,0.0324,0.013523,0.002678,0.000431,0.005876
99792000,0.0324,0.013523,0.002678,0.000431,0.005641
99793000,0.0324,0.013523,0.002678,0.000431,0.005994
99794000,0.0324,0.013523,0.002678,0.000431,0.006229
99795000,0.0324,0.013523,0.002678,0.000431,0.005759
99796000,0.0324,0.013523,0.002678,0.000431,0.005759
99797000,0.0324,0.013523,0.002678,0.000431,0.005994
99798000,0.0324,0.013523,0.002678,0.000431,0.005876
99799000,0.0324,0.013523,0.002678,0.000431,0.006111
99800000,0.0324,0.013523,0.002678,0.000431,0.005876
99801000,0.0324,0.013523,0.002678,0.000431,0.005759
99802000,0.0324,0.013523,0.002678,0.000431,0.005524
99803000,0.0324,0.013523,0.002678,0.000431,0.005994
99804000,0.0324,0.013523,0.002678,0.000431,0.006111
99805000,0.0324,0.013523,0.002678,0.000431,0.005759
99806000,0.0324,0.013523,0.002678,0.000431,0.005876
99807000,0.0324,0.013523,0.002678,0.000431,0.005641
99808000,0.0324,0.013523,0.002678,0.000431,0.006111
99809000,0.0324,0.013523,0.002678,0.000431,0.006229
99810000,0.0324,0.013523,0.002678,0.000431,0.005054
99811000,0.0324,0.013523,0.002678,0.000431,0.006464
99812000,0.0324,0.013523,0.002678,0.000431,0.005759
99813000,0.0324,0.013523,0.002678,0.000431,0.006111
99814000,0.0324,0.013523,0.002678,0.000431,0.005641
99815000,0.0324,0.013523,0.002678,0.000431,0.005759
99816000,0.0324,0.013523,0.002678,0.000431,0.007874
99817000,0.0324,0.013523,0.002678,0.000431,0.004936
99818000,0.0324,0.013523,0.002678,0.000431,0.004936
99819000,0.0324,0.013523,0.002678,0.000431,0.004936
99820000,0.0324,0.013523,0.002678,0.000431,0.005171
99821000,0.0324,0.013523,0.002678,0.000431,0.005054
99822000,0.0324,0.013523,0.002678,0.000431,0.004936
99823000,0.0324,0.013523,0.002678,0.000431,0.005054
99824000,0.0324,0.013523,0.002678,0.000431,0.004819
99825000,0.0324,0.013523,0.002678,0.000431,0.004936
99826000,0.0324,0.013523,0.002678,0.000431,0.005171
99827000,0.0324,0.013523,0.002678,0.000431,0.005289
99828000,0.0324,0.013523,0.002678,0.000431,0.004584
99829000,0.0324,0.013523,0.002678,0.000431,0.006699
99830000,0.0324,0.013523,0.002678,0.000431,0.003761
99831000,0.0324,0.013523,0.002678,0.000431,0.004466
99832000,0.0324,0.013523,0.002678,0.000431,0.004231
99833000,0.0324,0.013523,0.002678,0.000431,0.003761
99834000,0.0324,0.013523,0.002678,0.000431,0.004231
99835000,0.0324,0.013523,0.002678,0.000431,0.005524
99836000,0.0324,0.013523,0.002678,0.000431,0.002468
99837000,0.0324,0.013523,0.002678,0.000431,0.002586
99838000,0.0324,0.013523,0.002678,0.000431,0.002586
99839000,0.0324,0.013523,0.002678,0.000431,0.002468
99840000,0.0324,0.013523,0.002678,0.000431,0.002468
99841000,0.0324,0.013523,0.002678,0.000431,0.002703
99842000,0.0324,0.013523,0.002678,0.000431,0.002703
99843000,0.0324,0.013523,0.002678,0.000431,0.002351
99844000,0.0324,0.013523,0.002678,0.000431,0.002468
99845000,0.0324,0.013523,0.002678,0.000431,0.002586
99846000,0.0324,0.013523,0.002678,0.000431,0.002821
99847000,0.0324,0.013523,0.002678,0.000431,0.002351
99848000,0.0324,0.013523,0.002678,0.000431,0.002586
99849000,0.0324,0.013523,0.002678,0.000431,0.002586
99850000,0.0324,0.013523,0.002678,0.000431,0.002586
99851000,0.0324,0.013523,0.002678,0.000431,0.002586
99852000,0.0324,0.013523,0.002678,0.000431,0.002351
99853000,0.0324,0.013523,0.002678,0.000431,0.002821
99854000,0.0324,0.013523,0.002678,0.000431,0.002468
99855000,0.0324,0.013523,0.002678,0.000431,0.002468
99856000,0.0324,0.013523,0.002678,0.000431,0.002703
99857000,0.0324,0.013523,0.002678,0.000431,0.005876
99858000,0.0324,0.013523,0.002678,0.000431,0.001645
99859000,0.0324,0.013523,0.002678,0.000431,0.001763
99860000,0.0324,0.013523,0.002678,0.000431,0.001763
99861000,0.0324,0.013523,0.002678,0.000431,0.001763
99862000,0.0324,0.013523,0.002678,0.000431,0.001645
99863000,0.0324,0.013523,0.002678,0.000431,0.001645
99864000,0.0324,0.013523,0.002678,0.000431,0.001763
99865000,0.0324,0.013523,0.002678,0.000431,0.001763
99866000,0.0324,0.013523,0.002678,0.000431,0.001645
99867000,0.0324,0.013523,0.002678,0.000431,0.001763
99868000,0.0324,0.013523,0.002678,0.000431,0.001645
99869000,0.0324,0.013523,0.002678,0.000431,0.001880
99870000,0.0324,0.013523,0.002678,0.000431,0.001528
99871000,0.0324,0.013523,0.002678,0.000431,0.001763
99872000,0.0324,0.013523,0.002678,0.000431,0.001645
99873000,0.0324,0.013523,0.002678,0.000431,0.001880
99874000,0.0324,0.013523,0.002678,0.000431,0.001645
99875000,0.0324,0.013523,0.002678,0.000431,0.001645
99876000,0.0324,0.013523,0.002678,0.000431,0.001880
99877000,0.0324,0.013523,0.002678,0.000431,0.001528
99878000,0.0324,0.013523,0.002678,0.000431,0.001763
99879000,0.0324,0.013523,0.002678,0.000431,0.001763
99880000,0.0324,0.013523,0.002678,0.000431,0.004466
99881000,0.0324,0.013523,0.002678,0.000431,0.001058
99882000,0.0324,0.013523,0.002678,0.000431,0.000823
99883000,0.0324,0.013523,0.002678,0.000431,0.000940
99884000,0.0324,0.013523,0.002678,0.000431,0.188163
99885000,0.0324,0.013523,0.002678,0.000431,0.436970
99886000,0.0324,0.013523,0.002678,0.000431,0.523588
99887000,0.0324,0.013523,0.002678,0.000431,0.134922
99888000,0.0324,0.013523,0.002678,0.000431,0.130691
99889000,0.0324,0.013523,0.002678,0.000431,0.556378
99890000,0.0324,0.013523,0.002678,0.000431,0.252098
99891000,0.0324,0.013523,0.002678,0.000431,0.223186
99892000,0.0324,0.013523,0.002678,0.000431,0.346356
99893000,0.0324,0.013523,0.002678,0.000431,0.137743
99894000,0.0324,0.013523,0.002678,0.000431,0.143267
99895000,0.0324,0.013523,0.002678,0.000431,0.121289
99896000,0.0324,0.013523,0.002678,0.000431,0.294996
99897000,0.0324,0.013523,0.002678,0.000431,0.315446
99898000,0.0324,0.013523,0.002678,0.000431,0.056649
99899000,0.0324,0.013523,0.002678,0.000431,0.044543
99900000,0.0324,0.013523,0.002678,0.000431,0.041370
99901000,0.0324,0.013523,0.002678,0.000431,0.039725
99902000,0.0324,0.013523,0.002678,0.000431,0.027737
99903000,0.0324,0.013523,0.002678,0.000431,0.027619
99904000,0.0324,0.013523,0.002678,0.000431,0.030087
99905000,0.0324,0.013523,0.002678,0.000431,0.024563
99906000,0.0324,0.013523,0.002678,0.000431,0.021155
99907000,0.0324,0.013523,0.002678,0.000431,0.019392
99908000,0.0324,0.013523,0.002678,0.000431,0.021273
99909000,0.0324,0.013523,0.002678,0.000431,0.015749
99910000,0.0324,0.013523,0.002678,0.000431,0.016101
99911000,0.0324,0.013523,0.002678,0.000431,0.013281
99912000,0.0324,0.013523,0.002678,0.000431,0.012340
99913000,0.0324,0.013523,0.002678,0.000431,0.013281
99914000,0.0324,0.013523,0.002678,0.000431,0.009402
99915000,0.0324,0.013523,0.002678,0.000431,0.011518
99916000,0.0324,0.013523,0.002678,0.000431,0.008462
99917000,0.0324,0.013523,0.002678,0.000431,0.008462
99918000,0.0324,0.013523,0.002678,0.000431,0.008580
99919000,0.0324,0.013523,0.002678,0.000431,0.008697
99920000,0.0324,0.013523,0.002678,0.000431,0.008227
99921000,0.0324,0.013523,0.002678,0.000431,0.008580
99922000,0.0324,0.013523,0.002678,0.000431,0.008580
99923000,0.0324,0.013523,0.002678,0.000431,0.008580
99924000,0.0324,0.013523,0.002678,0.000431,0.009520
99925000,0.0324,0.013523,0.002678,0.000431,0.007639
99926000,0.0324,0.013523,0.002678,0.000431,0.007757
99927000,0.0324,0.013523,0.002678,0.000431,0.007522
99928000,0.0324,0.013523,0.002678,0.000431,0.007874
99929000,0.0324,0.013523,0.002678,0.000431,0.009050
99930000,0.0324,0.013523,0.002678,0.000431,0.006699
99931000,0.0324,0.013523,0.002678,0.000431,0.006817
99932000,0.0324,0.013523,0.002678,0.000431,0.007052
99933000,0.0324,0.013523,0.002678,0.000431,0.006699
99934000,0.0324,0.013523,0.002678,0.000431,0.007052
99935000,0.0324,0.013523,0.002678,0.000431,0.006347
99936000,0.0324,0.013523,0.002678,0.000431,0.007052
99937000,0.0324,0.013523,0.002678,0.000431,0.008345
99938000,0.0324,0.013523,0.002678,0.000431,0.006111
99939000,0.0324,0.013523,0.002678,0.000431,0.005876
99940000,0.0324,0.013523,0.002678,0.000431,0.005759
99941000,0.0324,0.013523,0.002678,0.000431,0.006347
99942000,0.0324,0.013523,0.002678,0.000431,0.005994
99943000,0.0324,0.013523,0.002678,0.000431,0.005994
99944000,0.0324,0.013523,0.002678,0.000431,0.005759
99945000,0.0324,0.013523,0.002678,0.000431,0.005994
99946000,0.0324,0.013523,0.002678,0.000431,0.006229
99947000,0.0324,0.013523,0.002678,0.000431,0.005641
99948000,0.0324,0.013523,0.002678,0.000431,0.005994
99949000,0.0324,0.013523,0.002678,0.000431,0.006229
99950000,0.0324,0.013523,0.002678,0.000431,0.005759
99951000,0.0324,0.013523,0.002678,0.000431,0.005876
99952000,0.0324,0.013523,0.002678,0.000431,0.007522
99953000,0.0324,0.013523,0.002678,0.000431,0.006347
99954000,0.0324,0.013523,0.002678,0.000431,0.004936
99955000,0.0324,0.013523,0.002678,0.000431,0.004936
99956000,0.0324,0.013523,0.002678,0.000431,0.005406
99957000,0.0324,0.013523,0.002678,0.000431,0.005289
99958000,0.0324,0.013523,0.002678,0.000431,0.004819
99959000,0.0324,0.013523,0.002678,0.000431,0.005171
99960000,0.0324,0.013523,0.002678,0.000431,0.004936
99961000,0.0324,0.013523,0.002678,0.000431,0.005289
99962000,0.0324,0.013523,0.002678,0.000431,0.005054
99963000,0.0324,0.013523,0.002678,0.000431,0.005171
99964000,0.0324,0.013523,0.002678,0.000431,0.005289
99965000,0.0324,0.013523,0.002678,0.000431,0.004936
99966000,0.0324,0.013523,0.002678,0.000431,0.005054
99967000,0.0324,0.013523,0.002678,0.000431,0.005406
99968000,0.0324,0.013523,0.002678,0.000431,0.004936
99969000,0.0324,0.013523,0.002678,0.000431,0.005054
99970000,0.0324,0.013523,0.002678,0.000431,0.005054
99971000,0.0324,0.013523,0.002678,0.000431,0.005289
99972000,0.0324,0.013523,0.002678,0.000431,0.005054
99973000,0.0324,0.013523,0.002678,0.000431,0.005171
99974000,0.0324,0.013523,0.002678,0.000431,0.005054
99975000,0.0324,0.013523,0.002678,0.000431,0.005171
99976000,0.0324,0.013523,0.002678,0.000431,0.004936
99977000,0.0324,0.013523,0.002678,0.000431,0.005171
99978000,0.0324,0.013523,0.002678,0.000431,0.005289
99979000,0.0324,0.013523,0.002678,0.000431,0.009167
99980000,0.0324,0.013523,0.002678,0.000431,0.004584
99981000,0.0324,0.013523,0.002678,0.000431,0.003996
99982000,0.0324,0.013523,0.002678,0.000431,0.004466
99983000,0.0324,0.013523,0.002678,0.000431,0.004231
99984000,0.0324,0.013523,0.002678,0.000431,0.004231
99985000,0.0324,0.013523,0.002678,0.000431,0.004466
99986000,0.0324,0.013523,0.002678,0.000431,0.004231
99987000,0.0324,0.013523,0.002678,0.000431,0.004466
99988000,0.0324,0.013523,0.002678,0.000431,0.003996
99989000,0.0324,0.013523,0.002678,0.000431,0.004466
99990000,0.0324,0.013523,0.002678,0.000431,0.004701
99991000,0.0324,0.013523,0.002678,0.000431,0.003878
99992000,0.0324,0.013523,0.002678,0.000431,0.004466
99993000,0.0324,0.013523,0.002678,0.000431,0.004113
99994000,0.0324,0.013523,0.002678,0.000431,0.004701
99995000,0.0324,0.013523,0.002678,0.000431,0.003996
99996000,0.0324,0.013523,0.002678,0.000431,0.004349
99997000,0.0324,0.013523,0.002678,0.000431,0.004466
99998000,0.0324,0.013523,0.002678,0.000431,0.004231
99999000,0.0324,0.013523,0.002678,0.000431,0.004231
