Cycle,Area(mm^2),PeakDynamic(W),SubthresholdLeakage(W),GateLeakage(W),RunTimeDynamic(W)
43000000,0.0324,0.013523,0.002678,0.000431,0.603155
43001000,0.0324,0.013523,0.002678,0.000431,0.232706
43002000,0.0324,0.013523,0.002678,0.000431,0.287944
43003000,0.0324,0.013523,0.002678,0.000431,0.198388
43004000,0.0324,0.013523,0.002678,0.000431,0.139153
43005000,0.0324,0.013523,0.002678,0.000431,0.147733
43006000,0.0324,0.013523,0.002678,0.000431,0.184754
43007000,0.0324,0.013523,0.002678,0.000431,0.435207
43008000,0.0324,0.013523,0.002678,0.000431,0.066521
43009000,0.0324,0.013523,0.002678,0.000431,0.054180
43010000,0.0324,0.013523,0.002678,0.000431,0.052300
43011000,0.0324,0.013523,0.002678,0.000431,0.043720
43012000,0.0324,0.013523,0.002678,0.000431,0.040312
43013000,0.0324,0.013523,0.002678,0.000431,0.038197
43014000,0.0324,0.013523,0.002678,0.000431,0.033378
43015000,0.0324,0.013523,0.002678,0.000431,0.030792
43016000,0.0324,0.013523,0.002678,0.000431,0.031615
43017000,0.0324,0.013523,0.002678,0.000431,0.031027
43018000,0.0324,0.013523,0.002678,0.000431,0.026444
43019000,0.0324,0.013523,0.002678,0.000431,0.030087
43020000,0.0324,0.013523,0.002678,0.000431,0.021860
43021000,0.0324,0.013523,0.002678,0.000431,0.022330
43022000,0.0324,0.013523,0.002678,0.000431,0.021390
43023000,0.0324,0.013523,0.002678,0.000431,0.016101
43024000,0.0324,0.013523,0.002678,0.000431,0.014926
43025000,0.0324,0.013523,0.002678,0.000431,0.014103
43026000,0.0324,0.013523,0.002678,0.000431,0.015631
43027000,0.0324,0.013523,0.002678,0.000431,0.013751
43028000,0.0324,0.013523,0.002678,0.000431,0.018687
43029000,0.0324,0.013523,0.002678,0.000431,0.015161
43030000,0.0324,0.013523,0.002678,0.000431,0.011988
43031000,0.0324,0.013523,0.002678,0.000431,0.012340
43032000,0.0324,0.013523,0.002678,0.000431,0.016336
43033000,0.0324,0.013523,0.002678,0.000431,0.010930
43034000,0.0324,0.013523,0.002678,0.000431,0.013986
43035000,0.0324,0.013523,0.002678,0.000431,0.010695
43036000,0.0324,0.013523,0.002678,0.000431,0.006347
43037000,0.0324,0.013523,0.002678,0.000431,0.006699
43038000,0.0324,0.013523,0.002678,0.000431,0.007874
43039000,0.0324,0.013523,0.002678,0.000431,0.007874
43040000,0.0324,0.013523,0.002678,0.000431,0.006229
43041000,0.0324,0.013523,0.002678,0.000431,0.004349
43042000,0.0324,0.013523,0.002678,0.000431,0.003878
43043000,0.0324,0.013523,0.002678,0.000431,0.004113
43044000,0.0324,0.013523,0.002678,0.000431,0.003761
43045000,0.0324,0.013523,0.002678,0.000431,0.003878
43046000,0.0324,0.013523,0.002678,0.000431,0.004466
43047000,0.0324,0.013523,0.002678,0.000431,0.004113
43048000,0.0324,0.013523,0.002678,0.000431,0.003526
43049000,0.0324,0.013523,0.002678,0.000431,0.005406
43050000,0.0324,0.013523,0.002678,0.000431,0.002821
43051000,0.0324,0.013523,0.002678,0.000431,0.002468
43052000,0.0324,0.013523,0.002678,0.000431,0.002586
43053000,0.0324,0.013523,0.002678,0.000431,0.002468
43054000,0.0324,0.013523,0.002678,0.000431,0.002586
43055000,0.0324,0.013523,0.002678,0.000431,0.002703
43056000,0.0324,0.013523,0.002678,0.000431,0.002468
43057000,0.0324,0.013523,0.002678,0.000431,0.002586
43058000,0.0324,0.013523,0.002678,0.000431,0.002468
43059000,0.0324,0.013523,0.002678,0.000431,0.002468
43060000,0.0324,0.013523,0.002678,0.000431,0.002586
43061000,0.0324,0.013523,0.002678,0.000431,0.002703
43062000,0.0324,0.013523,0.002678,0.000431,0.002468
43063000,0.0324,0.013523,0.002678,0.000431,0.002468
43064000,0.0324,0.013523,0.002678,0.000431,0.002586
43065000,0.0324,0.013523,0.002678,0.000431,0.002586
43066000,0.0324,0.013523,0.002678,0.000431,0.002586
43067000,0.0324,0.013523,0.002678,0.000431,0.002468
43068000,0.0324,0.013523,0.002678,0.000431,0.002586
43069000,0.0324,0.013523,0.002678,0.000431,0.002468
43070000,0.0324,0.013523,0.002678,0.000431,0.002703
43071000,0.0324,0.013523,0.002678,0.000431,0.002586
43072000,0.0324,0.013523,0.002678,0.000431,0.002468
43073000,0.0324,0.013523,0.002678,0.000431,0.002468
43074000,0.0324,0.013523,0.002678,0.000431,0.002586
43075000,0.0324,0.013523,0.002678,0.000431,0.002703
43076000,0.0324,0.013523,0.002678,0.000431,0.002468
43077000,0.0324,0.013523,0.002678,0.000431,0.002586
43078000,0.0324,0.013523,0.002678,0.000431,0.002351
43079000,0.0324,0.013523,0.002678,0.000431,0.002703
43080000,0.0324,0.013523,0.002678,0.000431,0.002703
43081000,0.0324,0.013523,0.002678,0.000431,0.002468
43082000,0.0324,0.013523,0.002678,0.000431,0.002586
43083000,0.0324,0.013523,0.002678,0.000431,0.002468
43084000,0.0324,0.013523,0.002678,0.000431,0.002703
43085000,0.0324,0.013523,0.002678,0.000431,0.002351
43086000,0.0324,0.013523,0.002678,0.000431,0.002586
43087000,0.0324,0.013523,0.002678,0.000431,0.002703
43088000,0.0324,0.013523,0.002678,0.000431,0.004701
43089000,0.0324,0.013523,0.002678,0.000431,0.001763
43090000,0.0324,0.013523,0.002678,0.000431,0.001763
43091000,0.0324,0.013523,0.002678,0.000431,0.001880
43092000,0.0324,0.013523,0.002678,0.000431,0.001528
43093000,0.0324,0.013523,0.002678,0.000431,0.001880
43094000,0.0324,0.013523,0.002678,0.000431,0.001645
43095000,0.0324,0.013523,0.002678,0.000431,0.001763
43096000,0.0324,0.013523,0.002678,0.000431,0.001528
43097000,0.0324,0.013523,0.002678,0.000431,0.001763
43098000,0.0324,0.013523,0.002678,0.000431,0.001880
43099000,0.0324,0.013523,0.002678,0.000431,0.001528
43100000,0.0324,0.013523,0.002678,0.000431,0.001763
43101000,0.0324,0.013523,0.002678,0.000431,0.001645
43102000,0.0324,0.013523,0.002678,0.000431,0.001880
43103000,0.0324,0.013523,0.002678,0.000431,0.001763
43104000,0.0324,0.013523,0.002678,0.000431,0.001528
43105000,0.0324,0.013523,0.002678,0.000431,0.001880
43106000,0.0324,0.013523,0.002678,0.000431,0.001645
43107000,0.0324,0.013523,0.002678,0.000431,0.001763
43108000,0.0324,0.013523,0.002678,0.000431,0.001528
43109000,0.0324,0.013523,0.002678,0.000431,0.001880
43110000,0.0324,0.013523,0.002678,0.000431,0.001763
43111000,0.0324,0.013523,0.002678,0.000431,0.001645
43112000,0.0324,0.013523,0.002678,0.000431,0.001645
43113000,0.0324,0.013523,0.002678,0.000431,0.001763
43114000,0.0324,0.013523,0.002678,0.000431,0.001645
43115000,0.0324,0.013523,0.002678,0.000431,0.001763
43116000,0.0324,0.013523,0.002678,0.000431,0.001645
43117000,0.0324,0.013523,0.002678,0.000431,0.001763
43118000,0.0324,0.013523,0.002678,0.000431,0.002938
43119000,0.0324,0.013523,0.002678,0.000431,0.002116
43120000,0.0324,0.013523,0.002678,0.000431,0.000940
43121000,0.0324,0.013523,0.002678,0.000431,0.000940
43122000,0.0324,0.013523,0.002678,0.000431,0.000823
43123000,0.0324,0.013523,0.002678,0.000431,0.000823
43124000,0.0324,0.013523,0.002678,0.000431,0.000940
43125000,0.0324,0.013523,0.002678,0.000431,0.000940
43126000,0.0324,0.013523,0.002678,0.000431,0.000823
43127000,0.0324,0.013523,0.002678,0.000431,0.000823
43128000,0.0324,0.013523,0.002678,0.000431,0.000940
43129000,0.0324,0.013523,0.002678,0.000431,0.000940
43130000,0.0324,0.013523,0.002678,0.000431,0.000823
43131000,0.0324,0.013523,0.002678,0.000431,0.000823
43132000,0.0324,0.013523,0.002678,0.000431,0.000940
43133000,0.0324,0.013523,0.002678,0.000431,0.000823
43134000,0.0324,0.013523,0.002678,0.000431,0.000940
43135000,0.0324,0.013523,0.002678,0.000431,0.000823
43136000,0.0324,0.013523,0.002678,0.000431,0.000940
43137000,0.0324,0.013523,0.002678,0.000431,0.000823
43138000,0.0324,0.013523,0.002678,0.000431,0.000823
43139000,0.0324,0.013523,0.002678,0.000431,0.000940
43140000,0.0324,0.013523,0.002678,0.000431,0.000940
43141000,0.0324,0.013523,0.002678,0.000431,0.000705
43142000,0.0324,0.013523,0.002678,0.000431,0.000940
43143000,0.0324,0.013523,0.002678,0.000431,0.000940
43144000,0.0324,0.013523,0.002678,0.000431,0.000940
43145000,0.0324,0.013523,0.002678,0.000431,0.000705
43146000,0.0324,0.013523,0.002678,0.000431,0.000940
43147000,0.0324,0.013523,0.002678,0.000431,0.000940
43148000,0.0324,0.013523,0.002678,0.000431,0.000823
43149000,0.0324,0.013523,0.002678,0.000431,0.000823
43150000,0.0324,0.013523,0.002678,0.000431,0.000940
43151000,0.0324,0.013523,0.002678,0.000431,0.000940
43152000,0.0324,0.013523,0.002678,0.000431,0.000823
43153000,0.0324,0.013523,0.002678,0.000431,0.000823
43154000,0.0324,0.013523,0.002678,0.000431,0.000940
43155000,0.0324,0.013523,0.002678,0.000431,0.000823
43156000,0.0324,0.013523,0.002678,0.000431,0.000940
43157000,0.0324,0.013523,0.002678,0.000431,0.000823
43158000,0.0324,0.013523,0.002678,0.000431,0.209200
43159000,0.0324,0.013523,0.002678,0.000431,0.528289
43160000,0.0324,0.013523,0.002678,0.000431,0.469290
43161000,0.0324,0.013523,0.002678,0.000431,0.131632
43162000,0.0324,0.013523,0.002678,0.000431,0.133982
43163000,0.0324,0.013523,0.002678,0.000431,0.591637
43164000,0.0324,0.013523,0.002678,0.000431,0.269022
43165000,0.0324,0.013523,0.002678,0.000431,0.275721
43166000,0.0324,0.013523,0.002678,0.000431,0.247632
43167000,0.0324,0.013523,0.002678,0.000431,0.152434
43168000,0.0324,0.013523,0.002678,0.000431,0.154079
43169000,0.0324,0.013523,0.002678,0.000431,0.152552
43170000,0.0324,0.013523,0.002678,0.000431,0.443551
43171000,0.0324,0.013523,0.002678,0.000431,0.086618
43172000,0.0324,0.013523,0.002678,0.000431,0.064170
43173000,0.0324,0.013523,0.002678,0.000431,0.056178
43174000,0.0324,0.013523,0.002678,0.000431,0.040195
43175000,0.0324,0.013523,0.002678,0.000431,0.030087
43176000,0.0324,0.013523,0.002678,0.000431,0.025269
43177000,0.0324,0.013523,0.002678,0.000431,0.024211
43178000,0.0324,0.013523,0.002678,0.000431,0.022448
43179000,0.0324,0.013523,0.002678,0.000431,0.015161
43180000,0.0324,0.013523,0.002678,0.000431,0.014926
43181000,0.0324,0.013523,0.002678,0.000431,0.013986
43182000,0.0324,0.013523,0.002678,0.000431,0.007992
43183000,0.0324,0.013523,0.002678,0.000431,0.009402
43184000,0.0324,0.013523,0.002678,0.000431,0.008932
43185000,0.0324,0.013523,0.002678,0.000431,0.007992
43186000,0.0324,0.013523,0.002678,0.000431,0.009167
43187000,0.0324,0.013523,0.002678,0.000431,0.009167
43188000,0.0324,0.013523,0.002678,0.000431,0.008462
43189000,0.0324,0.013523,0.002678,0.000431,0.009167
43190000,0.0324,0.013523,0.002678,0.000431,0.008580
43191000,0.0324,0.013523,0.002678,0.000431,0.009050
43192000,0.0324,0.013523,0.002678,0.000431,0.008932
43193000,0.0324,0.013523,0.002678,0.000431,0.008697
43194000,0.0324,0.013523,0.002678,0.000431,0.008580
43195000,0.0324,0.013523,0.002678,0.000431,0.008580
43196000,0.0324,0.013523,0.002678,0.000431,0.009402
43197000,0.0324,0.013523,0.002678,0.000431,0.008932
43198000,0.0324,0.013523,0.002678,0.000431,0.010578
43199000,0.0324,0.013523,0.002678,0.000431,0.008227
43200000,0.0324,0.013523,0.002678,0.000431,0.007522
43201000,0.0324,0.013523,0.002678,0.000431,0.008345
43202000,0.0324,0.013523,0.002678,0.000431,0.008109
43203000,0.0324,0.013523,0.002678,0.000431,0.007992
43204000,0.0324,0.013523,0.002678,0.000431,0.011400
43205000,0.0324,0.013523,0.002678,0.000431,0.006347
43206000,0.0324,0.013523,0.002678,0.000431,0.006817
43207000,0.0324,0.013523,0.002678,0.000431,0.006347
43208000,0.0324,0.013523,0.002678,0.000431,0.006347
43209000,0.0324,0.013523,0.002678,0.000431,0.006934
43210000,0.0324,0.013523,0.002678,0.000431,0.005994
43211000,0.0324,0.013523,0.002678,0.000431,0.006582
43212000,0.0324,0.013523,0.002678,0.000431,0.005641
43213000,0.0324,0.013523,0.002678,0.000431,0.005994
43214000,0.0324,0.013523,0.002678,0.000431,0.008462
43215000,0.0324,0.013523,0.002678,0.000431,0.006347
43216000,0.0324,0.013523,0.002678,0.000431,0.006464
43217000,0.0324,0.013523,0.002678,0.000431,0.002468
43218000,0.0324,0.013523,0.002678,0.000431,0.002586
43219000,0.0324,0.013523,0.002678,0.000431,0.002468
43220000,0.0324,0.013523,0.002678,0.000431,0.002351
43221000,0.0324,0.013523,0.002678,0.000431,0.002586
43222000,0.0324,0.013523,0.002678,0.000431,0.002586
43223000,0.0324,0.013523,0.002678,0.000431,0.002351
43224000,0.0324,0.013523,0.002678,0.000431,0.002703
43225000,0.0324,0.013523,0.002678,0.000431,0.002233
43226000,0.0324,0.013523,0.002678,0.000431,0.002703
43227000,0.0324,0.013523,0.002678,0.000431,0.002468
43228000,0.0324,0.013523,0.002678,0.000431,0.002468
43229000,0.0324,0.013523,0.002678,0.000431,0.002703
43230000,0.0324,0.013523,0.002678,0.000431,0.002233
43231000,0.0324,0.013523,0.002678,0.000431,0.002821
43232000,0.0324,0.013523,0.002678,0.000431,0.002233
43233000,0.0324,0.013523,0.002678,0.000431,0.002703
43234000,0.0324,0.013523,0.002678,0.000431,0.002468
43235000,0.0324,0.013523,0.002678,0.000431,0.002351
43236000,0.0324,0.013523,0.002678,0.000431,0.002821
43237000,0.0324,0.013523,0.002678,0.000431,0.002233
43238000,0.0324,0.013523,0.002678,0.000431,0.002586
43239000,0.0324,0.013523,0.002678,0.000431,0.003878
43240000,0.0324,0.013523,0.002678,0.000431,0.001645
43241000,0.0324,0.013523,0.002678,0.000431,0.001645
43242000,0.0324,0.013523,0.002678,0.000431,0.001880
43243000,0.0324,0.013523,0.002678,0.000431,0.001763
43244000,0.0324,0.013523,0.002678,0.000431,0.001528
43245000,0.0324,0.013523,0.002678,0.000431,0.001645
43246000,0.0324,0.013523,0.002678,0.000431,0.005054
43247000,0.0324,0.013523,0.002678,0.000431,0.000823
43248000,0.0324,0.013523,0.002678,0.000431,0.000823
43249000,0.0324,0.013523,0.002678,0.000431,0.000940
43250000,0.0324,0.013523,0.002678,0.000431,0.051360
43251000,0.0324,0.013523,0.002678,0.000431,0.510307
43252000,0.0324,0.013523,0.002678,0.000431,0.603977
43253000,0.0324,0.013523,0.002678,0.000431,0.131632
43254000,0.0324,0.013523,0.002678,0.000431,0.134922
43255000,0.0324,0.013523,0.002678,0.000431,0.525469
43256000,0.0324,0.013523,0.002678,0.000431,0.244694
43257000,0.0324,0.013523,0.002678,0.000431,0.229297
43258000,0.0324,0.013523,0.002678,0.000431,0.339539
43259000,0.0324,0.013523,0.002678,0.000431,0.148556
43260000,0.0324,0.013523,0.002678,0.000431,0.142797
43261000,0.0324,0.013523,0.002678,0.000431,0.145265
43262000,0.0324,0.013523,0.002678,0.000431,0.237054
43263000,0.0324,0.013523,0.002678,0.000431,0.392427
43264000,0.0324,0.013523,0.002678,0.000431,0.073220
43265000,0.0324,0.013523,0.002678,0.000431,0.053593
43266000,0.0324,0.013523,0.002678,0.000431,0.049479
43267000,0.0324,0.013523,0.002678,0.000431,0.050890
43268000,0.0324,0.013523,0.002678,0.000431,0.032790
43269000,0.0324,0.013523,0.002678,0.000431,0.020685
43270000,0.0324,0.013523,0.002678,0.000431,0.018687
43271000,0.0324,0.013523,0.002678,0.000431,0.018569
43272000,0.0324,0.013523,0.002678,0.000431,0.014809
43273000,0.0324,0.013523,0.002678,0.000431,0.015161
43274000,0.0324,0.013523,0.002678,0.000431,0.014573
43275000,0.0324,0.013523,0.002678,0.000431,0.016336
43276000,0.0324,0.013523,0.002678,0.000431,0.013751
43277000,0.0324,0.013523,0.002678,0.000431,0.018687
43278000,0.0324,0.013523,0.002678,0.000431,0.013751
43279000,0.0324,0.013523,0.002678,0.000431,0.014456
43280000,0.0324,0.013523,0.002678,0.000431,0.014103
43281000,0.0324,0.013523,0.002678,0.000431,0.010107
43282000,0.0324,0.013523,0.002678,0.000431,0.010813
43283000,0.0324,0.013523,0.002678,0.000431,0.009520
43284000,0.0324,0.013523,0.002678,0.000431,0.007757
43285000,0.0324,0.013523,0.002678,0.000431,0.008462
43286000,0.0324,0.013523,0.002678,0.000431,0.008227
43287000,0.0324,0.013523,0.002678,0.000431,0.007052
43288000,0.0324,0.013523,0.002678,0.000431,0.006699
43289000,0.0324,0.013523,0.002678,0.000431,0.010342
43290000,0.0324,0.013523,0.002678,0.000431,0.005759
43291000,0.0324,0.013523,0.002678,0.000431,0.005876
43292000,0.0324,0.013523,0.002678,0.000431,0.006229
43293000,0.0324,0.013523,0.002678,0.000431,0.005876
43294000,0.0324,0.013523,0.002678,0.000431,0.005876
43295000,0.0324,0.013523,0.002678,0.000431,0.005994
43296000,0.0324,0.013523,0.002678,0.000431,0.005876
43297000,0.0324,0.013523,0.002678,0.000431,0.006347
43298000,0.0324,0.013523,0.002678,0.000431,0.007169
43299000,0.0324,0.013523,0.002678,0.000431,0.006347
43300000,0.0324,0.013523,0.002678,0.000431,0.005641
43301000,0.0324,0.013523,0.002678,0.000431,0.004936
43302000,0.0324,0.013523,0.002678,0.000431,0.003291
43303000,0.0324,0.013523,0.002678,0.000431,0.002703
43304000,0.0324,0.013523,0.002678,0.000431,0.003408
43305000,0.0324,0.013523,0.002678,0.000431,0.003408
43306000,0.0324,0.013523,0.002678,0.000431,0.002703
43307000,0.0324,0.013523,0.002678,0.000431,0.003761
43308000,0.0324,0.013523,0.002678,0.000431,0.002703
43309000,0.0324,0.013523,0.002678,0.000431,0.003408
43310000,0.0324,0.013523,0.002678,0.000431,0.003056
43311000,0.0324,0.013523,0.002678,0.000431,0.003056
43312000,0.0324,0.013523,0.002678,0.000431,0.003761
43313000,0.0324,0.013523,0.002678,0.000431,0.002351
43314000,0.0324,0.013523,0.002678,0.000431,0.003761
43315000,0.0324,0.013523,0.002678,0.000431,0.003056
43316000,0.0324,0.013523,0.002678,0.000431,0.003056
43317000,0.0324,0.013523,0.002678,0.000431,0.003291
43318000,0.0324,0.013523,0.002678,0.000431,0.002821
43319000,0.0324,0.013523,0.002678,0.000431,0.003643
43320000,0.0324,0.013523,0.002678,0.000431,0.002938
43321000,0.0324,0.013523,0.002678,0.000431,0.003291
43322000,0.0324,0.013523,0.002678,0.000431,0.003173
43323000,0.0324,0.013523,0.002678,0.000431,0.002938
43324000,0.0324,0.013523,0.002678,0.000431,0.003291
43325000,0.0324,0.013523,0.002678,0.000431,0.003291
43326000,0.0324,0.013523,0.002678,0.000431,0.002703
43327000,0.0324,0.013523,0.002678,0.000431,0.003408
43328000,0.0324,0.013523,0.002678,0.000431,0.003291
43329000,0.0324,0.013523,0.002678,0.000431,0.002821
43330000,0.0324,0.013523,0.002678,0.000431,0.003761
43331000,0.0324,0.013523,0.002678,0.000431,0.002703
43332000,0.0324,0.013523,0.002678,0.000431,0.003408
43333000,0.0324,0.013523,0.002678,0.000431,0.002703
43334000,0.0324,0.013523,0.002678,0.000431,0.003408
43335000,0.0324,0.013523,0.002678,0.000431,0.003761
43336000,0.0324,0.013523,0.002678,0.000431,0.002351
43337000,0.0324,0.013523,0.002678,0.000431,0.003761
43338000,0.0324,0.013523,0.002678,0.000431,0.002703
43339000,0.0324,0.013523,0.002678,0.000431,0.003408
43340000,0.0324,0.013523,0.002678,0.000431,0.003291
43341000,0.0324,0.013523,0.002678,0.000431,0.002821
43342000,0.0324,0.013523,0.002678,0.000431,0.003643
43343000,0.0324,0.013523,0.002678,0.000431,0.002703
43344000,0.0324,0.013523,0.002678,0.000431,0.003526
43345000,0.0324,0.013523,0.002678,0.000431,0.003173
43346000,0.0324,0.013523,0.002678,0.000431,0.002821
43347000,0.0324,0.013523,0.002678,0.000431,0.003291
43348000,0.0324,0.013523,0.002678,0.000431,0.003173
43349000,0.0324,0.013523,0.002678,0.000431,0.003056
43350000,0.0324,0.013523,0.002678,0.000431,0.003291
43351000,0.0324,0.013523,0.002678,0.000431,0.003056
43352000,0.0324,0.013523,0.002678,0.000431,0.003056
43353000,0.0324,0.013523,0.002678,0.000431,0.003408
43354000,0.0324,0.013523,0.002678,0.000431,0.003056
43355000,0.0324,0.013523,0.002678,0.000431,0.003408
43356000,0.0324,0.013523,0.002678,0.000431,0.002703
43357000,0.0324,0.013523,0.002678,0.000431,0.003408
43358000,0.0324,0.013523,0.002678,0.000431,0.003291
43359000,0.0324,0.013523,0.002678,0.000431,0.002821
43360000,0.0324,0.013523,0.002678,0.000431,0.003761
43361000,0.0324,0.013523,0.002678,0.000431,0.002703
43362000,0.0324,0.013523,0.002678,0.000431,0.003408
43363000,0.0324,0.013523,0.002678,0.000431,0.003056
43364000,0.0324,0.013523,0.002678,0.000431,0.003056
43365000,0.0324,0.013523,0.002678,0.000431,0.003643
43366000,0.0324,0.013523,0.002678,0.000431,0.002468
43367000,0.0324,0.013523,0.002678,0.000431,0.003761
43368000,0.0324,0.013523,0.002678,0.000431,0.003173
43369000,0.0324,0.013523,0.002678,0.000431,0.003761
43370000,0.0324,0.013523,0.002678,0.000431,0.003643
43371000,0.0324,0.013523,0.002678,0.000431,0.001998
43372000,0.0324,0.013523,0.002678,0.000431,0.002586
43373000,0.0324,0.013523,0.002678,0.000431,0.002351
43374000,0.0324,0.013523,0.002678,0.000431,0.002351
43375000,0.0324,0.013523,0.002678,0.000431,0.002468
43376000,0.0324,0.013523,0.002678,0.000431,0.001998
43377000,0.0324,0.013523,0.002678,0.000431,0.002468
43378000,0.0324,0.013523,0.002678,0.000431,0.002468
43379000,0.0324,0.013523,0.002678,0.000431,0.001998
43380000,0.0324,0.013523,0.002678,0.000431,0.002468
43381000,0.0324,0.013523,0.002678,0.000431,0.002351
43382000,0.0324,0.013523,0.002678,0.000431,0.002116
43383000,0.0324,0.013523,0.002678,0.000431,0.002821
43384000,0.0324,0.013523,0.002678,0.000431,0.001998
43385000,0.0324,0.013523,0.002678,0.000431,0.002468
43386000,0.0324,0.013523,0.002678,0.000431,0.001880
43387000,0.0324,0.013523,0.002678,0.000431,0.002586
43388000,0.0324,0.013523,0.002678,0.000431,0.002821
43389000,0.0324,0.013523,0.002678,0.000431,0.001645
43390000,0.0324,0.013523,0.002678,0.000431,0.002821
43391000,0.0324,0.013523,0.002678,0.000431,0.001880
43392000,0.0324,0.013523,0.002678,0.000431,0.002586
43393000,0.0324,0.013523,0.002678,0.000431,0.002468
43394000,0.0324,0.013523,0.002678,0.000431,0.001998
43395000,0.0324,0.013523,0.002678,0.000431,0.002821
43396000,0.0324,0.013523,0.002678,0.000431,0.001880
43397000,0.0324,0.013523,0.002678,0.000431,0.002586
43398000,0.0324,0.013523,0.002678,0.000431,0.002116
43399000,0.0324,0.013523,0.002678,0.000431,0.002351
43400000,0.0324,0.013523,0.002678,0.000431,0.002468
43401000,0.0324,0.013523,0.002678,0.000431,0.002233
43402000,0.0324,0.013523,0.002678,0.000431,0.002233
43403000,0.0324,0.013523,0.002678,0.000431,0.002468
43404000,0.0324,0.013523,0.002678,0.000431,0.002351
43405000,0.0324,0.013523,0.002678,0.000431,0.002116
43406000,0.0324,0.013523,0.002678,0.000431,0.002468
43407000,0.0324,0.013523,0.002678,0.000431,0.002233
43408000,0.0324,0.013523,0.002678,0.000431,0.002586
43409000,0.0324,0.013523,0.002678,0.000431,0.001998
43410000,0.0324,0.013523,0.002678,0.000431,0.002468
43411000,0.0324,0.013523,0.002678,0.000431,0.002233
43412000,0.0324,0.013523,0.002678,0.000431,0.002233
43413000,0.0324,0.013523,0.002678,0.000431,0.002821
43414000,0.0324,0.013523,0.002678,0.000431,0.001645
43415000,0.0324,0.013523,0.002678,0.000431,0.002821
43416000,0.0324,0.013523,0.002678,0.000431,0.002586
43417000,0.0324,0.013523,0.002678,0.000431,0.002233
43418000,0.0324,0.013523,0.002678,0.000431,0.002468
43419000,0.0324,0.013523,0.002678,0.000431,0.002351
43420000,0.0324,0.013523,0.002678,0.000431,0.002468
43421000,0.0324,0.013523,0.002678,0.000431,0.002233
43422000,0.0324,0.013523,0.002678,0.000431,0.002586
43423000,0.0324,0.013523,0.002678,0.000431,0.002821
43424000,0.0324,0.013523,0.002678,0.000431,0.001998
43425000,0.0324,0.013523,0.002678,0.000431,0.003291
43426000,0.0324,0.013523,0.002678,0.000431,0.001528
43427000,0.0324,0.013523,0.002678,0.000431,0.000940
43428000,0.0324,0.013523,0.002678,0.000431,0.061232
43429000,0.0324,0.013523,0.002678,0.000431,0.526174
43430000,0.0324,0.013523,0.002678,0.000431,0.593400
43431000,0.0324,0.013523,0.002678,0.000431,0.131161
43432000,0.0324,0.013523,0.002678,0.000431,0.135863
43433000,0.0324,0.013523,0.002678,0.000431,0.557436
43434000,0.0324,0.013523,0.002678,0.000431,0.228357
43435000,0.0324,0.013523,0.002678,0.000431,0.286416
43436000,0.0324,0.013523,0.002678,0.000431,0.320382
43437000,0.0324,0.013523,0.002678,0.000431,0.141857
43438000,0.0324,0.013523,0.002678,0.000431,0.173472
43439000,0.0324,0.013523,0.002678,0.000431,0.096021
43440000,0.0324,0.013523,0.002678,0.000431,0.479868
43441000,0.0324,0.013523,0.002678,0.000431,0.085678
43442000,0.0324,0.013523,0.002678,0.000431,0.043720
43443000,0.0324,0.013523,0.002678,0.000431,0.036199
43444000,0.0324,0.013523,0.002678,0.000431,0.029382
43445000,0.0324,0.013523,0.002678,0.000431,0.024798
43446000,0.0324,0.013523,0.002678,0.000431,0.018805
43447000,0.0324,0.013523,0.002678,0.000431,0.019862
43448000,0.0324,0.013523,0.002678,0.000431,0.013751
43449000,0.0324,0.013523,0.002678,0.000431,0.015279
43450000,0.0324,0.013523,0.002678,0.000431,0.014573
43451000,0.0324,0.013523,0.002678,0.000431,0.009755
43452000,0.0324,0.013523,0.002678,0.000431,0.007992
43453000,0.0324,0.013523,0.002678,0.000431,0.004584
43454000,0.0324,0.013523,0.002678,0.000431,0.007052
43455000,0.0324,0.013523,0.002678,0.000431,0.005289
43456000,0.0324,0.013523,0.002678,0.000431,0.004466
43457000,0.0324,0.013523,0.002678,0.000431,0.004113
43458000,0.0324,0.013523,0.002678,0.000431,0.004113
43459000,0.0324,0.013523,0.002678,0.000431,0.004231
43460000,0.0324,0.013523,0.002678,0.000431,0.003996
43461000,0.0324,0.013523,0.002678,0.000431,0.004466
43462000,0.0324,0.013523,0.002678,0.000431,0.003996
43463000,0.0324,0.013523,0.002678,0.000431,0.004231
43464000,0.0324,0.013523,0.002678,0.000431,0.004231
43465000,0.0324,0.013523,0.002678,0.000431,0.004113
43466000,0.0324,0.013523,0.002678,0.000431,0.004113
43467000,0.0324,0.013523,0.002678,0.000431,0.004113
43468000,0.0324,0.013523,0.002678,0.000431,0.004231
43469000,0.0324,0.013523,0.002678,0.000431,0.003996
43470000,0.0324,0.013523,0.002678,0.000431,0.004231
43471000,0.0324,0.013523,0.002678,0.000431,0.004113
43472000,0.0324,0.013523,0.002678,0.000431,0.004466
43473000,0.0324,0.013523,0.002678,0.000431,0.003761
43474000,0.0324,0.013523,0.002678,0.000431,0.004466
43475000,0.0324,0.013523,0.002678,0.000431,0.004231
43476000,0.0324,0.013523,0.002678,0.000431,0.003996
43477000,0.0324,0.013523,0.002678,0.000431,0.004466
43478000,0.0324,0.013523,0.002678,0.000431,0.003761
43479000,0.0324,0.013523,0.002678,0.000431,0.004349
43480000,0.0324,0.013523,0.002678,0.000431,0.004231
43481000,0.0324,0.013523,0.002678,0.000431,0.004231
43482000,0.0324,0.013523,0.002678,0.000431,0.004113
43483000,0.0324,0.013523,0.002678,0.000431,0.004113
43484000,0.0324,0.013523,0.002678,0.000431,0.004349
43485000,0.0324,0.013523,0.002678,0.000431,0.004231
43486000,0.0324,0.013523,0.002678,0.000431,0.003878
43487000,0.0324,0.013523,0.002678,0.000431,0.004349
43488000,0.0324,0.013523,0.002678,0.000431,0.004113
43489000,0.0324,0.013523,0.002678,0.000431,0.005759
43490000,0.0324,0.013523,0.002678,0.000431,0.003173
43491000,0.0324,0.013523,0.002678,0.000431,0.003526
43492000,0.0324,0.013523,0.002678,0.000431,0.003291
43493000,0.0324,0.013523,0.002678,0.000431,0.003526
43494000,0.0324,0.013523,0.002678,0.000431,0.003291
43495000,0.0324,0.013523,0.002678,0.000431,0.003291
43496000,0.0324,0.013523,0.002678,0.000431,0.003408
43497000,0.0324,0.013523,0.002678,0.000431,0.003408
43498000,0.0324,0.013523,0.002678,0.000431,0.003173
43499000,0.0324,0.013523,0.002678,0.000431,0.003408
43500000,0.0324,0.013523,0.002678,0.000431,0.003761
43501000,0.0324,0.013523,0.002678,0.000431,0.003056
43502000,0.0324,0.013523,0.002678,0.000431,0.003408
43503000,0.0324,0.013523,0.002678,0.000431,0.003173
43504000,0.0324,0.013523,0.002678,0.000431,0.003761
43505000,0.0324,0.013523,0.002678,0.000431,0.003173
43506000,0.0324,0.013523,0.002678,0.000431,0.003173
43507000,0.0324,0.013523,0.002678,0.000431,0.003761
43508000,0.0324,0.013523,0.002678,0.000431,0.003056
43509000,0.0324,0.013523,0.002678,0.000431,0.003408
43510000,0.0324,0.013523,0.002678,0.000431,0.003408
43511000,0.0324,0.013523,0.002678,0.000431,0.003526
43512000,0.0324,0.013523,0.002678,0.000431,0.004819
43513000,0.0324,0.013523,0.002678,0.000431,0.001528
43514000,0.0324,0.013523,0.002678,0.000431,0.001880
43515000,0.0324,0.013523,0.002678,0.000431,0.001763
43516000,0.0324,0.013523,0.002678,0.000431,0.001763
43517000,0.0324,0.013523,0.002678,0.000431,0.001528
43518000,0.0324,0.013523,0.002678,0.000431,0.001763
43519000,0.0324,0.013523,0.002678,0.000431,0.001763
43520000,0.0324,0.013523,0.002678,0.000431,0.001645
43521000,0.0324,0.013523,0.002678,0.000431,0.001763
43522000,0.0324,0.013523,0.002678,0.000431,0.001645
43523000,0.0324,0.013523,0.002678,0.000431,0.001880
43524000,0.0324,0.013523,0.002678,0.000431,0.001645
43525000,0.0324,0.013523,0.002678,0.000431,0.001645
43526000,0.0324,0.013523,0.002678,0.000431,0.001645
43527000,0.0324,0.013523,0.002678,0.000431,0.001763
43528000,0.0324,0.013523,0.002678,0.000431,0.001880
43529000,0.0324,0.013523,0.002678,0.000431,0.001528
43530000,0.0324,0.013523,0.002678,0.000431,0.001880
43531000,0.0324,0.013523,0.002678,0.000431,0.001528
43532000,0.0324,0.013523,0.002678,0.000431,0.001763
43533000,0.0324,0.013523,0.002678,0.000431,0.001763
43534000,0.0324,0.013523,0.002678,0.000431,0.001763
43535000,0.0324,0.013523,0.002678,0.000431,0.001880
43536000,0.0324,0.013523,0.002678,0.000431,0.001410
43537000,0.0324,0.013523,0.002678,0.000431,0.001880
43538000,0.0324,0.013523,0.002678,0.000431,0.001645
43539000,0.0324,0.013523,0.002678,0.000431,0.001763
43540000,0.0324,0.013523,0.002678,0.000431,0.001645
43541000,0.0324,0.013523,0.002678,0.000431,0.001763
43542000,0.0324,0.013523,0.002678,0.000431,0.001645
43543000,0.0324,0.013523,0.002678,0.000431,0.001763
43544000,0.0324,0.013523,0.002678,0.000431,0.001763
43545000,0.0324,0.013523,0.002678,0.000431,0.001645
43546000,0.0324,0.013523,0.002678,0.000431,0.001645
43547000,0.0324,0.013523,0.002678,0.000431,0.001763
43548000,0.0324,0.013523,0.002678,0.000431,0.001763
43549000,0.0324,0.013523,0.002678,0.000431,0.001763
43550000,0.0324,0.013523,0.002678,0.000431,0.001645
43551000,0.0324,0.013523,0.002678,0.000431,0.004584
43552000,0.0324,0.013523,0.002678,0.000431,0.001058
43553000,0.0324,0.013523,0.002678,0.000431,0.000940
43554000,0.0324,0.013523,0.002678,0.000431,0.000705
43555000,0.0324,0.013523,0.002678,0.000431,0.000940
43556000,0.0324,0.013523,0.002678,0.000431,0.000940
43557000,0.0324,0.013523,0.002678,0.000431,0.000940
43558000,0.0324,0.013523,0.002678,0.000431,0.000823
43559000,0.0324,0.013523,0.002678,0.000431,0.000823
43560000,0.0324,0.013523,0.002678,0.000431,0.000940
43561000,0.0324,0.013523,0.002678,0.000431,0.000823
43562000,0.0324,0.013523,0.002678,0.000431,0.000940
43563000,0.0324,0.013523,0.002678,0.000431,0.000823
43564000,0.0324,0.013523,0.002678,0.000431,0.000940
43565000,0.0324,0.013523,0.002678,0.000431,0.000823
43566000,0.0324,0.013523,0.002678,0.000431,0.000823
43567000,0.0324,0.013523,0.002678,0.000431,0.000940
43568000,0.0324,0.013523,0.002678,0.000431,0.000940
43569000,0.0324,0.013523,0.002678,0.000431,0.000823
43570000,0.0324,0.013523,0.002678,0.000431,0.000823
43571000,0.0324,0.013523,0.002678,0.000431,0.000940
43572000,0.0324,0.013523,0.002678,0.000431,0.000940
43573000,0.0324,0.013523,0.002678,0.000431,0.000705
43574000,0.0324,0.013523,0.002678,0.000431,0.000940
43575000,0.0324,0.013523,0.002678,0.000431,0.000940
43576000,0.0324,0.013523,0.002678,0.000431,0.000940
43577000,0.0324,0.013523,0.002678,0.000431,0.000705
43578000,0.0324,0.013523,0.002678,0.000431,0.000940
43579000,0.0324,0.013523,0.002678,0.000431,0.000940
43580000,0.0324,0.013523,0.002678,0.000431,0.000823
43581000,0.0324,0.013523,0.002678,0.000431,0.000823
43582000,0.0324,0.013523,0.002678,0.000431,0.071340
43583000,0.0324,0.013523,0.002678,0.000431,0.526761
43584000,0.0324,0.013523,0.002678,0.000431,0.560727
43585000,0.0324,0.013523,0.002678,0.000431,0.132572
43586000,0.0324,0.013523,0.002678,0.000431,0.133982
43587000,0.0324,0.013523,0.002678,0.000431,0.562020
43588000,0.0324,0.013523,0.002678,0.000431,0.222598
43589000,0.0324,0.013523,0.002678,0.000431,0.294056
43590000,0.0324,0.013523,0.002678,0.000431,0.304398
43591000,0.0324,0.013523,0.002678,0.000431,0.138801
43592000,0.0324,0.013523,0.002678,0.000431,0.148438
43593000,0.0324,0.013523,0.002678,0.000431,0.110359
43594000,0.0324,0.013523,0.002678,0.000431,0.407118
43595000,0.0324,0.013523,0.002678,0.000431,0.178290
43596000,0.0324,0.013523,0.002678,0.000431,0.047834
43597000,0.0324,0.013523,0.002678,0.000431,0.031850
43598000,0.0324,0.013523,0.002678,0.000431,0.024328
43599000,0.0324,0.013523,0.002678,0.000431,0.018805
43600000,0.0324,0.013523,0.002678,0.000431,0.021038
43601000,0.0324,0.013523,0.002678,0.000431,0.012223
43602000,0.0324,0.013523,0.002678,0.000431,0.011048
43603000,0.0324,0.013523,0.002678,0.000431,0.018217
43604000,0.0324,0.013523,0.002678,0.000431,0.009872
43605000,0.0324,0.013523,0.002678,0.000431,0.011753
43606000,0.0324,0.013523,0.002678,0.000431,0.009755
43607000,0.0324,0.013523,0.002678,0.000431,0.009755
43608000,0.0324,0.013523,0.002678,0.000431,0.011635
43609000,0.0324,0.013523,0.002678,0.000431,0.009285
43610000,0.0324,0.013523,0.002678,0.000431,0.008109
43611000,0.0324,0.013523,0.002678,0.000431,0.009167
43612000,0.0324,0.013523,0.002678,0.000431,0.008462
43613000,0.0324,0.013523,0.002678,0.000431,0.008815
43614000,0.0324,0.013523,0.002678,0.000431,0.007639
43615000,0.0324,0.013523,0.002678,0.000431,0.008580
43616000,0.0324,0.013523,0.002678,0.000431,0.008227
43617000,0.0324,0.013523,0.002678,0.000431,0.009285
43618000,0.0324,0.013523,0.002678,0.000431,0.007169
43619000,0.0324,0.013523,0.002678,0.000431,0.006111
43620000,0.0324,0.013523,0.002678,0.000431,0.006699
43621000,0.0324,0.013523,0.002678,0.000431,0.006464
43622000,0.0324,0.013523,0.002678,0.000431,0.007522
43623000,0.0324,0.013523,0.002678,0.000431,0.004819
43624000,0.0324,0.013523,0.002678,0.000431,0.004701
43625000,0.0324,0.013523,0.002678,0.000431,0.004701
43626000,0.0324,0.013523,0.002678,0.000431,0.004936
43627000,0.0324,0.013523,0.002678,0.000431,0.005171
43628000,0.0324,0.013523,0.002678,0.000431,0.004584
43629000,0.0324,0.013523,0.002678,0.000431,0.004936
43630000,0.0324,0.013523,0.002678,0.000431,0.006229
43631000,0.0324,0.013523,0.002678,0.000431,0.003526
43632000,0.0324,0.013523,0.002678,0.000431,0.003291
43633000,0.0324,0.013523,0.002678,0.000431,0.003291
43634000,0.0324,0.013523,0.002678,0.000431,0.003408
43635000,0.0324,0.013523,0.002678,0.000431,0.003173
43636000,0.0324,0.013523,0.002678,0.000431,0.003526
43637000,0.0324,0.013523,0.002678,0.000431,0.005289
43638000,0.0324,0.013523,0.002678,0.000431,0.002468
43639000,0.0324,0.013523,0.002678,0.000431,0.002586
43640000,0.0324,0.013523,0.002678,0.000431,0.002351
43641000,0.0324,0.013523,0.002678,0.000431,0.002703
43642000,0.0324,0.013523,0.002678,0.000431,0.002586
43643000,0.0324,0.013523,0.002678,0.000431,0.002351
43644000,0.0324,0.013523,0.002678,0.000431,0.002586
43645000,0.0324,0.013523,0.002678,0.000431,0.002351
43646000,0.0324,0.013523,0.002678,0.000431,0.002703
43647000,0.0324,0.013523,0.002678,0.000431,0.002468
43648000,0.0324,0.013523,0.002678,0.000431,0.002351
43649000,0.0324,0.013523,0.002678,0.000431,0.002703
43650000,0.0324,0.013523,0.002678,0.000431,0.002468
43651000,0.0324,0.013523,0.002678,0.000431,0.002586
43652000,0.0324,0.013523,0.002678,0.000431,0.002233
43653000,0.0324,0.013523,0.002678,0.000431,0.002586
43654000,0.0324,0.013523,0.002678,0.000431,0.002703
43655000,0.0324,0.013523,0.002678,0.000431,0.002351
43656000,0.0324,0.013523,0.002678,0.000431,0.002586
43657000,0.0324,0.013523,0.002678,0.000431,0.002468
43658000,0.0324,0.013523,0.002678,0.000431,0.002468
43659000,0.0324,0.013523,0.002678,0.000431,0.002586
43660000,0.0324,0.013523,0.002678,0.000431,0.002586
43661000,0.0324,0.013523,0.002678,0.000431,0.002468
43662000,0.0324,0.013523,0.002678,0.000431,0.002586
43663000,0.0324,0.013523,0.002678,0.000431,0.002468
43664000,0.0324,0.013523,0.002678,0.000431,0.002586
43665000,0.0324,0.013523,0.002678,0.000431,0.002468
43666000,0.0324,0.013523,0.002678,0.000431,0.002468
43667000,0.0324,0.013523,0.002678,0.000431,0.002703
43668000,0.0324,0.013523,0.002678,0.000431,0.002233
43669000,0.0324,0.013523,0.002678,0.000431,0.002703
43670000,0.0324,0.013523,0.002678,0.000431,0.002468
43671000,0.0324,0.013523,0.002678,0.000431,0.002468
43672000,0.0324,0.013523,0.002678,0.000431,0.002468
43673000,0.0324,0.013523,0.002678,0.000431,0.002586
43674000,0.0324,0.013523,0.002678,0.000431,0.002586
43675000,0.0324,0.013523,0.002678,0.000431,0.002351
43676000,0.0324,0.013523,0.002678,0.000431,0.002703
43677000,0.0324,0.013523,0.002678,0.000431,0.002233
43678000,0.0324,0.013523,0.002678,0.000431,0.002703
43679000,0.0324,0.013523,0.002678,0.000431,0.002586
43680000,0.0324,0.013523,0.002678,0.000431,0.002351
43681000,0.0324,0.013523,0.002678,0.000431,0.002703
43682000,0.0324,0.013523,0.002678,0.000431,0.002351
43683000,0.0324,0.013523,0.002678,0.000431,0.002703
43684000,0.0324,0.013523,0.002678,0.000431,0.002586
43685000,0.0324,0.013523,0.002678,0.000431,0.002351
43686000,0.0324,0.013523,0.002678,0.000431,0.002468
43687000,0.0324,0.013523,0.002678,0.000431,0.002468
43688000,0.0324,0.013523,0.002678,0.000431,0.002821
43689000,0.0324,0.013523,0.002678,0.000431,0.004349
43690000,0.0324,0.013523,0.002678,0.000431,0.003996
43691000,0.0324,0.013523,0.002678,0.000431,0.001528
43692000,0.0324,0.013523,0.002678,0.000431,0.001763
43693000,0.0324,0.013523,0.002678,0.000431,0.001645
43694000,0.0324,0.013523,0.002678,0.000431,0.001645
43695000,0.0324,0.013523,0.002678,0.000431,0.001763
43696000,0.0324,0.013523,0.002678,0.000431,0.001528
43697000,0.0324,0.013523,0.002678,0.000431,0.001880
43698000,0.0324,0.013523,0.002678,0.000431,0.001410
43699000,0.0324,0.013523,0.002678,0.000431,0.001880
43700000,0.0324,0.013523,0.002678,0.000431,0.003173
43701000,0.0324,0.013523,0.002678,0.000431,0.000823
43702000,0.0324,0.013523,0.002678,0.000431,0.000940
43703000,0.0324,0.013523,0.002678,0.000431,0.000823
43704000,0.0324,0.013523,0.002678,0.000431,0.000823
43705000,0.0324,0.013523,0.002678,0.000431,0.000823
43706000,0.0324,0.013523,0.002678,0.000431,0.000940
43707000,0.0324,0.013523,0.002678,0.000431,0.069694
43708000,0.0324,0.013523,0.002678,0.000431,0.443316
43709000,0.0324,0.013523,0.002678,0.000431,0.597278
43710000,0.0324,0.013523,0.002678,0.000431,0.139036
43711000,0.0324,0.013523,0.002678,0.000431,0.138566
43712000,0.0324,0.013523,0.002678,0.000431,0.566133
43713000,0.0324,0.013523,0.002678,0.000431,0.272548
43714000,0.0324,0.013523,0.002678,0.000431,0.244811
43715000,0.0324,0.013523,0.002678,0.000431,0.311332
43716000,0.0324,0.013523,0.002678,0.000431,0.148908
43717000,0.0324,0.013523,0.002678,0.000431,0.142092
43718000,0.0324,0.013523,0.002678,0.000431,0.107186
43719000,0.0324,0.013523,0.002678,0.000431,0.344710
43720000,0.0324,0.013523,0.002678,0.000431,0.305691
43721000,0.0324,0.013523,0.002678,0.000431,0.073220
43722000,0.0324,0.013523,0.002678,0.000431,0.059469
43723000,0.0324,0.013523,0.002678,0.000431,0.056649
43724000,0.0324,0.013523,0.002678,0.000431,0.043133
43725000,0.0324,0.013523,0.002678,0.000431,0.037727
43726000,0.0324,0.013523,0.002678,0.000431,0.026561
43727000,0.0324,0.013523,0.002678,0.000431,0.027502
43728000,0.0324,0.013523,0.002678,0.000431,0.022683
43729000,0.0324,0.013523,0.002678,0.000431,0.025974
43730000,0.0324,0.013523,0.002678,0.000431,0.016924
43731000,0.0324,0.013523,0.002678,0.000431,0.013751
43732000,0.0324,0.013523,0.002678,0.000431,0.017747
43733000,0.0324,0.013523,0.002678,0.000431,0.016219
43734000,0.0324,0.013523,0.002678,0.000431,0.013516
43735000,0.0324,0.013523,0.002678,0.000431,0.012458
43736000,0.0324,0.013523,0.002678,0.000431,0.011165
43737000,0.0324,0.013523,0.002678,0.000431,0.011635
43738000,0.0324,0.013523,0.002678,0.000431,0.011988
43739000,0.0324,0.013523,0.002678,0.000431,0.015396
43740000,0.0324,0.013523,0.002678,0.000431,0.009637
43741000,0.0324,0.013523,0.002678,0.000431,0.008815
43742000,0.0324,0.013523,0.002678,0.000431,0.009755
43743000,0.0324,0.013523,0.002678,0.000431,0.008580
43744000,0.0324,0.013523,0.002678,0.000431,0.008932
43745000,0.0324,0.013523,0.002678,0.000431,0.009637
43746000,0.0324,0.013523,0.002678,0.000431,0.009402
43747000,0.0324,0.013523,0.002678,0.000431,0.008697
43748000,0.0324,0.013523,0.002678,0.000431,0.012458
43749000,0.0324,0.013523,0.002678,0.000431,0.007874
43750000,0.0324,0.013523,0.002678,0.000431,0.008580
43751000,0.0324,0.013523,0.002678,0.000431,0.008227
43752000,0.0324,0.013523,0.002678,0.000431,0.009167
43753000,0.0324,0.013523,0.002678,0.000431,0.007287
43754000,0.0324,0.013523,0.002678,0.000431,0.007992
43755000,0.0324,0.013523,0.002678,0.000431,0.008697
43756000,0.0324,0.013523,0.002678,0.000431,0.005994
43757000,0.0324,0.013523,0.002678,0.000431,0.008815
43758000,0.0324,0.013523,0.002678,0.000431,0.008345
43759000,0.0324,0.013523,0.002678,0.000431,0.006699
43760000,0.0324,0.013523,0.002678,0.000431,0.008345
43761000,0.0324,0.013523,0.002678,0.000431,0.007757
43762000,0.0324,0.013523,0.002678,0.000431,0.006934
43763000,0.0324,0.013523,0.002678,0.000431,0.007874
43764000,0.0324,0.013523,0.002678,0.000431,0.009167
43765000,0.0324,0.013523,0.002678,0.000431,0.007992
43766000,0.0324,0.013523,0.002678,0.000431,0.006582
43767000,0.0324,0.013523,0.002678,0.000431,0.008932
43768000,0.0324,0.013523,0.002678,0.000431,0.005406
43769000,0.0324,0.013523,0.002678,0.000431,0.006934
43770000,0.0324,0.013523,0.002678,0.000431,0.007404
43771000,0.0324,0.013523,0.002678,0.000431,0.006229
43772000,0.0324,0.013523,0.002678,0.000431,0.006582
43773000,0.0324,0.013523,0.002678,0.000431,0.007404
43774000,0.0324,0.013523,0.002678,0.000431,0.007052
43775000,0.0324,0.013523,0.002678,0.000431,0.006229
43776000,0.0324,0.013523,0.002678,0.000431,0.007874
43777000,0.0324,0.013523,0.002678,0.000431,0.006111
43778000,0.0324,0.013523,0.002678,0.000431,0.006582
43779000,0.0324,0.013523,0.002678,0.000431,0.006347
43780000,0.0324,0.013523,0.002678,0.000431,0.004701
43781000,0.0324,0.013523,0.002678,0.000431,0.005994
43782000,0.0324,0.013523,0.002678,0.000431,0.006934
43783000,0.0324,0.013523,0.002678,0.000431,0.004701
43784000,0.0324,0.013523,0.002678,0.000431,0.005054
43785000,0.0324,0.013523,0.002678,0.000431,0.006111
43786000,0.0324,0.013523,0.002678,0.000431,0.006111
43787000,0.0324,0.013523,0.002678,0.000431,0.005876
43788000,0.0324,0.013523,0.002678,0.000431,0.006347
43789000,0.0324,0.013523,0.002678,0.000431,0.006111
43790000,0.0324,0.013523,0.002678,0.000431,0.006111
43791000,0.0324,0.013523,0.002678,0.000431,0.006111
43792000,0.0324,0.013523,0.002678,0.000431,0.006111
43793000,0.0324,0.013523,0.002678,0.000431,0.006582
43794000,0.0324,0.013523,0.002678,0.000431,0.005289
43795000,0.0324,0.013523,0.002678,0.000431,0.006229
43796000,0.0324,0.013523,0.002678,0.000431,0.006464
43797000,0.0324,0.013523,0.002678,0.000431,0.005994
43798000,0.0324,0.013523,0.002678,0.000431,0.006582
43799000,0.0324,0.013523,0.002678,0.000431,0.005524
43800000,0.0324,0.013523,0.002678,0.000431,0.006934
43801000,0.0324,0.013523,0.002678,0.000431,0.005876
43802000,0.0324,0.013523,0.002678,0.000431,0.005876
43803000,0.0324,0.013523,0.002678,0.000431,0.006347
43804000,0.0324,0.013523,0.002678,0.000431,0.005876
43805000,0.0324,0.013523,0.002678,0.000431,0.006464
43806000,0.0324,0.013523,0.002678,0.000431,0.006464
43807000,0.0324,0.013523,0.002678,0.000431,0.004819
43808000,0.0324,0.013523,0.002678,0.000431,0.005759
43809000,0.0324,0.013523,0.002678,0.000431,0.005054
43810000,0.0324,0.013523,0.002678,0.000431,0.005171
43811000,0.0324,0.013523,0.002678,0.000431,0.005759
43812000,0.0324,0.013523,0.002678,0.000431,0.004113
43813000,0.0324,0.013523,0.002678,0.000431,0.006464
43814000,0.0324,0.013523,0.002678,0.000431,0.004701
43815000,0.0324,0.013523,0.002678,0.000431,0.005641
43816000,0.0324,0.013523,0.002678,0.000431,0.004701
43817000,0.0324,0.013523,0.002678,0.000431,0.005524
43818000,0.0324,0.013523,0.002678,0.000431,0.005054
43819000,0.0324,0.013523,0.002678,0.000431,0.005641
43820000,0.0324,0.013523,0.002678,0.000431,0.004349
43821000,0.0324,0.013523,0.002678,0.000431,0.006934
43822000,0.0324,0.013523,0.002678,0.000431,0.002586
43823000,0.0324,0.013523,0.002678,0.000431,0.003526
43824000,0.0324,0.013523,0.002678,0.000431,0.003291
43825000,0.0324,0.013523,0.002678,0.000431,0.002821
43826000,0.0324,0.013523,0.002678,0.000431,0.003291
43827000,0.0324,0.013523,0.002678,0.000431,0.003056
43828000,0.0324,0.013523,0.002678,0.000431,0.002233
43829000,0.0324,0.013523,0.002678,0.000431,0.003408
43830000,0.0324,0.013523,0.002678,0.000431,0.002586
43831000,0.0324,0.013523,0.002678,0.000431,0.003526
43832000,0.0324,0.013523,0.002678,0.000431,0.003291
43833000,0.0324,0.013523,0.002678,0.000431,0.002821
43834000,0.0324,0.013523,0.002678,0.000431,0.003291
43835000,0.0324,0.013523,0.002678,0.000431,0.003056
43836000,0.0324,0.013523,0.002678,0.000431,0.003056
43837000,0.0324,0.013523,0.002678,0.000431,0.003291
43838000,0.0324,0.013523,0.002678,0.000431,0.002821
43839000,0.0324,0.013523,0.002678,0.000431,0.003291
43840000,0.0324,0.013523,0.002678,0.000431,0.003173
43841000,0.0324,0.013523,0.002678,0.000431,0.002938
43842000,0.0324,0.013523,0.002678,0.000431,0.003761
43843000,0.0324,0.013523,0.002678,0.000431,0.001763
43844000,0.0324,0.013523,0.002678,0.000431,0.003056
43845000,0.0324,0.013523,0.002678,0.000431,0.002351
43846000,0.0324,0.013523,0.002678,0.000431,0.002938
43847000,0.0324,0.013523,0.002678,0.000431,0.003291
43848000,0.0324,0.013523,0.002678,0.000431,0.002351
43849000,0.0324,0.013523,0.002678,0.000431,0.003291
43850000,0.0324,0.013523,0.002678,0.000431,0.002938
43851000,0.0324,0.013523,0.002678,0.000431,0.002703
43852000,0.0324,0.013523,0.002678,0.000431,0.003291
43853000,0.0324,0.013523,0.002678,0.000431,0.002586
43854000,0.0324,0.013523,0.002678,0.000431,0.001998
43855000,0.0324,0.013523,0.002678,0.000431,0.000940
43856000,0.0324,0.013523,0.002678,0.000431,0.000823
43857000,0.0324,0.013523,0.002678,0.000431,0.000823
43858000,0.0324,0.013523,0.002678,0.000431,0.000940
43859000,0.0324,0.013523,0.002678,0.000431,0.000940
43860000,0.0324,0.013523,0.002678,0.000431,0.000823
43861000,0.0324,0.013523,0.002678,0.000431,0.000823
43862000,0.0324,0.013523,0.002678,0.000431,0.000940
43863000,0.0324,0.013523,0.002678,0.000431,0.000940
43864000,0.0324,0.013523,0.002678,0.000431,0.000823
43865000,0.0324,0.013523,0.002678,0.000431,0.000823
43866000,0.0324,0.013523,0.002678,0.000431,0.000940
43867000,0.0324,0.013523,0.002678,0.000431,0.000940
43868000,0.0324,0.013523,0.002678,0.000431,0.000940
43869000,0.0324,0.013523,0.002678,0.000431,0.000705
43870000,0.0324,0.013523,0.002678,0.000431,0.000940
43871000,0.0324,0.013523,0.002678,0.000431,0.000940
43872000,0.0324,0.013523,0.002678,0.000431,0.000940
43873000,0.0324,0.013523,0.002678,0.000431,0.000705
43874000,0.0324,0.013523,0.002678,0.000431,0.000940
43875000,0.0324,0.013523,0.002678,0.000431,0.000940
43876000,0.0324,0.013523,0.002678,0.000431,0.000823
43877000,0.0324,0.013523,0.002678,0.000431,0.000823
43878000,0.0324,0.013523,0.002678,0.000431,0.000940
43879000,0.0324,0.013523,0.002678,0.000431,0.000940
43880000,0.0324,0.013523,0.002678,0.000431,0.000823
43881000,0.0324,0.013523,0.002678,0.000431,0.000823
43882000,0.0324,0.013523,0.002678,0.000431,0.000940
43883000,0.0324,0.013523,0.002678,0.000431,0.000823
43884000,0.0324,0.013523,0.002678,0.000431,0.000823
43885000,0.0324,0.013523,0.002678,0.000431,0.000940
43886000,0.0324,0.013523,0.002678,0.000431,0.000940
43887000,0.0324,0.013523,0.002678,0.000431,0.000823
43888000,0.0324,0.013523,0.002678,0.000431,0.000823
43889000,0.0324,0.013523,0.002678,0.000431,0.000940
43890000,0.0324,0.013523,0.002678,0.000431,0.000940
43891000,0.0324,0.013523,0.002678,0.000431,0.003526
43892000,0.0324,0.013523,0.002678,0.000431,0.448958
43893000,0.0324,0.013523,0.002678,0.000431,0.691536
43894000,0.0324,0.013523,0.002678,0.000431,0.138331
43895000,0.0324,0.013523,0.002678,0.000431,0.133042
43896000,0.0324,0.013523,0.002678,0.000431,0.326376
43897000,0.0324,0.013523,0.002678,0.000431,0.482101
43898000,0.0324,0.013523,0.002678,0.000431,0.251393
43899000,0.0324,0.013523,0.002678,0.000431,0.346120
43900000,0.0324,0.013523,0.002678,0.000431,0.137390
43901000,0.0324,0.013523,0.002678,0.000431,0.153022
43902000,0.0324,0.013523,0.002678,0.000431,0.105070
43903000,0.0324,0.013523,0.002678,0.000431,0.432386
43904000,0.0324,0.013523,0.002678,0.000431,0.197800
43905000,0.0324,0.013523,0.002678,0.000431,0.083563
43906000,0.0324,0.013523,0.002678,0.000431,0.080507
43907000,0.0324,0.013523,0.002678,0.000431,0.057236
43908000,0.0324,0.013523,0.002678,0.000431,0.053240
43909000,0.0324,0.013523,0.002678,0.000431,0.044661
43910000,0.0324,0.013523,0.002678,0.000431,0.034201
43911000,0.0324,0.013523,0.002678,0.000431,0.030205
43912000,0.0324,0.013523,0.002678,0.000431,0.031615
43913000,0.0324,0.013523,0.002678,0.000431,0.025739
43914000,0.0324,0.013523,0.002678,0.000431,0.025856
43915000,0.0324,0.013523,0.002678,0.000431,0.025739
43916000,0.0324,0.013523,0.002678,0.000431,0.029617
43917000,0.0324,0.013523,0.002678,0.000431,0.018687
43918000,0.0324,0.013523,0.002678,0.000431,0.022565
43919000,0.0324,0.013523,0.002678,0.000431,0.018452
43920000,0.0324,0.013523,0.002678,0.000431,0.019392
43921000,0.0324,0.013523,0.002678,0.000431,0.014573
43922000,0.0324,0.013523,0.002678,0.000431,0.014809
43923000,0.0324,0.013523,0.002678,0.000431,0.014103
43924000,0.0324,0.013523,0.002678,0.000431,0.013163
43925000,0.0324,0.013523,0.002678,0.000431,0.017982
43926000,0.0324,0.013523,0.002678,0.000431,0.012928
43927000,0.0324,0.013523,0.002678,0.000431,0.012223
43928000,0.0324,0.013523,0.002678,0.000431,0.010225
43929000,0.0324,0.013523,0.002678,0.000431,0.011870
43930000,0.0324,0.013523,0.002678,0.000431,0.011283
43931000,0.0324,0.013523,0.002678,0.000431,0.010107
43932000,0.0324,0.013523,0.002678,0.000431,0.009402
43933000,0.0324,0.013523,0.002678,0.000431,0.008462
43934000,0.0324,0.013523,0.002678,0.000431,0.008345
43935000,0.0324,0.013523,0.002678,0.000431,0.008227
43936000,0.0324,0.013523,0.002678,0.000431,0.010107
43937000,0.0324,0.013523,0.002678,0.000431,0.006934
43938000,0.0324,0.013523,0.002678,0.000431,0.008815
43939000,0.0324,0.013523,0.002678,0.000431,0.008932
43940000,0.0324,0.013523,0.002678,0.000431,0.006347
43941000,0.0324,0.013523,0.002678,0.000431,0.006111
43942000,0.0324,0.013523,0.002678,0.000431,0.008580
43943000,0.0324,0.013523,0.002678,0.000431,0.004584
43944000,0.0324,0.013523,0.002678,0.000431,0.005054
43945000,0.0324,0.013523,0.002678,0.000431,0.004349
43946000,0.0324,0.013523,0.002678,0.000431,0.004584
43947000,0.0324,0.013523,0.002678,0.000431,0.003761
43948000,0.0324,0.013523,0.002678,0.000431,0.004584
43949000,0.0324,0.013523,0.002678,0.000431,0.004231
43950000,0.0324,0.013523,0.002678,0.000431,0.005994
43951000,0.0324,0.013523,0.002678,0.000431,0.003878
43952000,0.0324,0.013523,0.002678,0.000431,0.003408
43953000,0.0324,0.013523,0.002678,0.000431,0.003643
43954000,0.0324,0.013523,0.002678,0.000431,0.003173
43955000,0.0324,0.013523,0.002678,0.000431,0.003761
43956000,0.0324,0.013523,0.002678,0.000431,0.003526
43957000,0.0324,0.013523,0.002678,0.000431,0.003173
43958000,0.0324,0.013523,0.002678,0.000431,0.003996
43959000,0.0324,0.013523,0.002678,0.000431,0.003291
43960000,0.0324,0.013523,0.002678,0.000431,0.003408
43961000,0.0324,0.013523,0.002678,0.000431,0.003408
43962000,0.0324,0.013523,0.002678,0.000431,0.003761
43963000,0.0324,0.013523,0.002678,0.000431,0.003761
43964000,0.0324,0.013523,0.002678,0.000431,0.002938
43965000,0.0324,0.013523,0.002678,0.000431,0.004113
43966000,0.0324,0.013523,0.002678,0.000431,0.003291
43967000,0.0324,0.013523,0.002678,0.000431,0.003761
43968000,0.0324,0.013523,0.002678,0.000431,0.003643
43969000,0.0324,0.013523,0.002678,0.000431,0.003408
43970000,0.0324,0.013523,0.002678,0.000431,0.004701
43971000,0.0324,0.013523,0.002678,0.000431,0.003878
43972000,0.0324,0.013523,0.002678,0.000431,0.002938
43973000,0.0324,0.013523,0.002678,0.000431,0.002703
43974000,0.0324,0.013523,0.002678,0.000431,0.002586
43975000,0.0324,0.013523,0.002678,0.000431,0.002821
43976000,0.0324,0.013523,0.002678,0.000431,0.003056
43977000,0.0324,0.013523,0.002678,0.000431,0.002351
43978000,0.0324,0.013523,0.002678,0.000431,0.003173
43979000,0.0324,0.013523,0.002678,0.000431,0.002468
43980000,0.0324,0.013523,0.002678,0.000431,0.002703
43981000,0.0324,0.013523,0.002678,0.000431,0.004349
43982000,0.0324,0.013523,0.002678,0.000431,0.002586
43983000,0.0324,0.013523,0.002678,0.000431,0.000940
43984000,0.0324,0.013523,0.002678,0.000431,0.000705
43985000,0.0324,0.013523,0.002678,0.000431,0.000940
43986000,0.0324,0.013523,0.002678,0.000431,0.000823
43987000,0.0324,0.013523,0.002678,0.000431,0.000823
43988000,0.0324,0.013523,0.002678,0.000431,0.000823
43989000,0.0324,0.013523,0.002678,0.000431,0.000823
43990000,0.0324,0.013523,0.002678,0.000431,0.000823
43991000,0.0324,0.013523,0.002678,0.000431,0.000823
43992000,0.0324,0.013523,0.002678,0.000431,0.000940
43993000,0.0324,0.013523,0.002678,0.000431,0.000705
43994000,0.0324,0.013523,0.002678,0.000431,0.000823
43995000,0.0324,0.013523,0.002678,0.000431,0.000940
43996000,0.0324,0.013523,0.002678,0.000431,0.000823
43997000,0.0324,0.013523,0.002678,0.000431,0.000823
43998000,0.0324,0.013523,0.002678,0.000431,0.000823
43999000,0.0324,0.013523,0.002678,0.000431,0.000823
